time,accelX,accelY,accelZ,gyroX,gyroY,gyroZ
18090989743087,0.555176,2.44409,4.97974,0,0,0
18090990014383,0.555176,2.44409,4.97974,0,0,0
18090990227309,0.555176,2.44409,4.97974,0,0,0
18090990436809,0.555176,2.44409,4.97974,0,0,0
18090990644920,0.555176,2.44409,4.97974,0,0,0
18090990853772,0.555176,2.44409,4.97974,0,0,0
18090991061754,2.75244,0.246826,-5.27417,0,0,0
18090991270365,2.75244,0.246826,-5.27417,0,0,0
18090991478735,2.75244,0.246826,-5.27417,0,0,0
18090991686661,2.75244,0.246826,-5.27417,0,0,0
18090991895698,2.75244,0.246826,-5.27417,0,0,0
18090992090735,2.75244,0.246826,-5.27417,0,0,0
18090992310457,2.75244,0.246826,-5.27417,0,0,0
18090992518735,2.75244,0.246826,-5.27417,0,0,0
18090992726587,2.75244,0.246826,-5.27417,0,0,0
18090992935828,2.75244,0.246826,-5.27417,0.305185,0.305185,0.335704
18090993146476,2.75244,0.246826,-5.27417,0.305185,0.305185,0.335704
18090993355420,2.75244,0.246826,-5.27417,0.305185,0.305185,0.335704
18090993564383,2.75244,0.246826,-5.27417,0.305185,0.305185,0.335704
18090993773291,2.75244,0.246826,-5.27417,0.305185,0.305185,0.335704
18090993990920,2.75244,0.246826,-5.27417,0.305185,0.305185,0.335704
18090994200809,2.75244,0.246826,-5.27417,0.305185,0.305185,0.335704
18090994409291,2.75244,0.246826,-5.27417,0.305185,0.305185,0.335704
18090994617772,2.75244,0.246826,-5.27417,0.305185,0.305185,0.335704
18090994826642,2.75244,0.246826,-5.27417,0.305185,0.305185,0.335704
18090995035605,2.75244,0.246826,-5.27417,0.305185,0.305185,0.335704
18090995244494,2.75244,0.246826,-5.27417,0.305185,0.305185,0.335704
18090995452346,2.75244,0.246826,-5.27417,0.305185,0.305185,0.335704
18090995661050,2.75244,0.246826,-5.27417,0.305185,0.305185,0.335704
18090995869216,2.75244,0.246826,-5.27417,0.305185,0.305185,0.335704
18090996074716,2.75244,0.246826,-5.27417,0.305185,0.305185,0.335704
18090996293124,2.75244,0.246826,-5.27417,0.305185,0.305185,0.335704
18090996501050,2.75244,0.246826,-5.27417,0.305185,0.305185,0.335704
18090996709587,2.75244,0.246826,-5.27417,0.305185,0.305185,0.335704
18090996918254,2.75244,0.246826,-5.27417,0.305185,0.305185,0.335704
18090997133531,2.75244,0.246826,-5.27417,0.305185,0.305185,0.335704
18090997342791,2.75244,0.246826,-5.27417,0.305185,0.305185,0.335704
18090997551661,2.75244,0.246826,-5.27417,0.305185,0.305185,0.335704
18090997760365,2.75244,0.246826,-5.27417,0.305185,0.305185,0.335704
18090997968828,2.75244,0.246826,-5.27417,0.305185,0.305185,0.335704
18090998178828,2.75244,0.246826,-5.27417,0.305185,0.305185,0.335704
18090998387661,2.75244,0.246826,-5.27417,0.305185,0.305185,0.335704
18090998596142,2.75244,0.246826,-5.27417,0.305185,0.305185,0.335704
18090998804161,2.75244,0.246826,-5.27417,0.305185,0.305185,0.335704
18090999012809,2.75244,0.246826,-5.27417,0.305185,0.305185,0.335704
18090999221383,2.75244,0.246826,-5.27417,0.305185,0.305185,0.335704
18090999429735,2.75244,0.246826,-5.27417,0.305185,0.305185,0.335704
18090999638346,2.75244,0.246826,-5.27417,0.305185,0.305185,0.335704
18090999846402,2.75244,0.246826,-5.27417,0.305185,0.305185,0.335704
18091000071161,2.75244,0.246826,-5.27417,0.305185,0.305185,0.335704
18091000297402,2.75244,0.246826,-5.27417,0.305185,0.305185,0.335704
18091000507198,2.75244,0.246826,-5.27417,0.305185,0.305185,0.335704
18091000715642,2.75244,0.246826,-5.27417,0.305185,0.305185,0.335704
18091000923846,2.75244,0.246826,-5.27417,0.305185,0.305185,0.335704
18091001132161,2.02002,-0.485596,-0.879639,0.305185,0.305185,0.335704
18091001341994,2.02002,-0.485596,-0.879639,0.305185,0.305185,0.335704
18091001550939,2.02002,-0.485596,-0.879639,0.305185,0.305185,0.335704
18091001760698,2.02002,-0.485596,-0.879639,0.183111,0.549333,-0.183111
18091001969791,2.02002,-0.485596,-0.879639,0.183111,0.549333,-0.183111
18091002178754,2.02002,-0.485596,-0.879639,0.183111,0.549333,-0.183111
18091002388735,2.02002,-0.485596,-0.879639,0.183111,0.549333,-0.183111
18091002598328,2.02002,-0.485596,-0.879639,0.183111,0.549333,-0.183111
18091002807902,2.02002,-0.485596,-0.879639,0.183111,0.549333,-0.183111
18091003016902,2.02002,-0.485596,-0.879639,0.183111,0.549333,-0.183111
18091003268883,2.02002,-0.485596,-0.879639,0.183111,0.549333,-0.183111
18091003479661,2.02002,-0.485596,-0.879639,0.183111,0.549333,-0.183111
18091003689531,2.02002,-0.485596,-0.879639,0.183111,0.549333,-0.183111
18091003898568,2.02002,-0.485596,-0.879639,0.183111,0.549333,-0.183111
18091004089198,2.02002,-0.485596,-0.879639,0.183111,0.549333,-0.183111
18091004309328,2.02002,-0.485596,-0.879639,0.183111,0.549333,-0.183111
18091004519383,2.02002,-0.485596,-0.879639,0.183111,0.549333,-0.183111
18091004728902,2.02002,-0.485596,-0.879639,0.183111,0.549333,-0.183111
18091004937679,2.02002,-0.485596,-0.879639,0.183111,0.549333,-0.183111
18091005146735,2.02002,-0.485596,-0.879639,0.183111,0.549333,-0.183111
18091005355754,2.02002,-0.485596,-0.879639,0.183111,0.549333,-0.183111
18091005564828,2.02002,-0.485596,-0.879639,0.183111,0.549333,7.32444
18091005773828,2.02002,-0.485596,-0.879639,0,0,0
18091005982402,2.02002,-0.485596,-0.879639,0,0,0
18091006190920,2.02002,-0.485596,-0.879639,0,0,0
18091006399179,2.02002,-0.485596,-0.879639,0,0,0
18091006614216,2.02002,-0.485596,-0.879639,0,0,0
18091006823383,2.02002,-0.485596,-0.879639,0,0,0
18091007032050,2.02002,-0.485596,-0.879639,0,0,0
18091007240883,2.02002,-0.485596,-0.879639,0,0,0
18091007449661,2.02002,-0.485596,-0.879639,0,0,0
18091007658105,2.02002,-0.485596,-0.879639,0,0,0
18091007866254,2.02002,-0.485596,-0.879639,0,0,0
18091008071698,2.02002,-0.485596,-0.879639,0,0,0
18091008289624,2.02002,-0.485596,-0.879639,0,0,0
18091008498105,2.02002,-0.485596,-0.879639,0,0,0
18091008706105,2.02002,-0.485596,-0.879639,0,0,0
18091008914698,2.02002,-0.485596,-0.879639,0,0,0
18091009123531,2.02002,-0.485596,-0.879639,0,0,0
18091009331846,2.02002,-0.485596,-0.879639,0,0,0
18091009540420,2.02002,-0.485596,-0.879639,0,0,0
18091009749068,2.02002,-0.485596,-0.879639,0,0,0
18091009957809,2.02002,-0.485596,-0.879639,0,0,0
18091010166513,2.02002,-0.485596,-0.879639,0,0,0
18091010374976,2.02002,-0.485596,-0.879639,0,0,0
18091010583383,2.02002,-0.485596,-0.879639,0,0,0
18091010792976,2.02002,-0.485596,-0.879639,0,0,0
18091011007624,-3.83936,3.17651,-3.80933,0,0,0
18091011215754,-3.83936,3.17651,-3.80933,0,0,0
18091011423439,-3.83936,3.17651,-3.80933,0,0,0
18091011630754,-3.83936,3.17651,-3.80933,0,0,0
18091011838828,-3.83936,3.17651,-3.80933,0,0,0
18091012069031,-3.83936,3.17651,-3.80933,0,0,0
18091012286642,-3.83936,3.17651,-3.80933,0,0,0
18091012494365,-3.83936,3.17651,-3.80933,0,0,0
18091012701754,-3.83936,3.17651,-3.80933,0,0,0
18091012908939,-3.83936,3.17651,-3.80933,0.0915555,0.518815,0.305185
18091013119531,-3.83936,3.17651,-3.80933,0.0915555,0.518815,0.305185
18091013329550,-3.83936,3.17651,-3.80933,0.0915555,0.518815,0.305185
18091013538957,-3.83936,3.17651,-3.80933,0.0915555,0.518815,0.305185
18091013747994,-3.83936,3.17651,-3.80933,0.0915555,0.518815,0.305185
18091013957031,-3.83936,3.17651,-3.80933,0.0915555,0.518815,0.305185
18091014166402,-3.83936,3.17651,-3.80933,0.0915555,0.518815,0.305185
18091014375939,-3.83936,3.17651,-3.80933,0.0915555,0.518815,0.305185
18091014585346,-3.83936,3.17651,-3.80933,0.0915555,0.518815,0.305185
18091014800809,-3.83936,3.17651,-3.80933,0.0915555,0.518815,0.305185
18091015010754,-3.83936,3.17651,-3.80933,0.0915555,0.518815,0.305185
18091015219846,-3.83936,3.17651,-3.80933,0.0915555,0.518815,0.305185
18091015428605,-3.83936,3.17651,-3.80933,0.0915555,0.518815,0.305185
18091015638031,-3.83936,3.17651,-3.80933,0.0915555,0.518815,0.305185
18091015847328,-3.83936,3.17651,-3.80933,0.0915555,0.518815,0.305185
18091016068994,-3.83936,3.17651,-3.80933,0.0915555,0.518815,0.305185
18091016288309,-3.83936,3.17651,-3.80933,0.0915555,0.518815,0.305185
18091016498291,-3.83936,3.17651,-3.80933,0.0915555,0.518815,0.305185
18091016707272,-3.83936,3.17651,-3.80933,0.0915555,0.518815,0.305185
18091016916605,-3.83936,3.17651,-3.80933,0.0915555,0.518815,0.305185
18091017125754,-3.83936,3.17651,-3.80933,0.0915555,0.518815,0.305185
18091017335513,-3.83936,3.17651,-3.80933,0.0915555,0.518815,0.305185
18091017544346,-3.83936,3.17651,-3.80933,0.0915555,0.518815,0.305185
18091017753587,-3.83936,3.17651,-3.80933,0.0915555,0.518815,0.305185
18091017994179,-3.83936,3.17651,-3.80933,0.0915555,0.518815,0.305185
18091018203846,-3.83936,3.17651,-3.80933,0.0915555,0.518815,0.305185
18091018413754,-3.83936,3.17651,-3.80933,0.0915555,0.518815,0.305185
18091018623254,-3.83936,3.17651,-3.80933,0.0915555,0.518815,0.305185
18091018833716,-3.83936,3.17651,-3.80933,0.0915555,0.518815,0.305185
18091019042587,-3.83936,3.17651,-3.80933,0.0915555,0.518815,0.305185
18091019252124,-3.83936,3.17651,-3.80933,0.0915555,0.518815,0.305185
18091019461439,-3.83936,3.17651,-3.80933,0.0915555,0.518815,0.305185
18091019670235,-3.83936,3.17651,-3.80933,0.0915555,0.518815,0.305185
18091019879476,-3.83936,3.17651,-3.80933,0.0915555,0.518815,0.305185
18091020090624,-3.83936,3.17651,-3.80933,0.0915555,0.518815,0.305185
18091020314476,-3.83936,3.17651,-3.80933,0.0915555,0.518815,0.305185
18091020529235,-3.83936,3.17651,-3.80933,0.0915555,0.518815,0.305185
18091020742920,-3.83936,3.17651,-3.80933,0.0915555,0.518815,0.305185
18091020962624,-5.3042,3.17651,-7.47144,0.0915555,0.518815,0.305185
18091021175772,-5.3042,3.17651,-7.47144,0.0915555,0.518815,0.305185
18091021388513,-5.3042,3.17651,-7.47144,0.0915555,0.518815,0.305185
18091021601420,-5.3042,3.17651,-7.47144,0.0915555,0.518815,0.305185
18091021814272,-5.3042,3.17651,-7.47144,0.0915555,0.366222,0.457778
18091022027791,-5.3042,3.17651,-7.47144,0.0915555,0.366222,0.457778
18091022240457,-5.3042,3.17651,-7.47144,0.0915555,0.366222,0.457778
18091022453235,-5.3042,3.17651,-7.47144,0.0915555,0.366222,0.457778
18091022665772,-5.3042,3.17651,-7.47144,0.0915555,0.366222,0.457778
18091022877754,-5.3042,3.17651,-7.47144,0.0915555,0.366222,0.457778
18091023090661,-5.3042,3.17651,-7.47144,0.0915555,0.366222,0.457778
18091023303754,-5.3042,3.17651,-7.47144,0.0915555,0.366222,0.457778
18091023515976,-5.3042,3.17651,-7.47144,0.0915555,0.366222,0.457778
18091023728883,-5.3042,3.17651,-7.47144,0.0915555,0.366222,0.457778
18091023941013,-5.3042,3.17651,-7.47144,0.0915555,0.366222,0.457778
18091024185013,-5.3042,3.17651,-7.47144,0.0915555,0.366222,0.457778
18091024400698,-5.3042,3.17651,-7.47144,0.0915555,0.366222,0.457778
18091024613457,-5.3042,3.17651,-7.47144,0.0915555,0.366222,0.457778
18091024826420,-5.3042,3.17651,-7.47144,0.0915555,0.366222,0.457778
18091025039346,-5.3042,3.17651,-7.47144,0.0915555,0.366222,0.457778
18091025251809,-5.3042,3.17651,-7.47144,0.0915555,0.366222,0.457778
18091025464624,-5.3042,3.17651,-7.47144,0.0915555,0.366222,0.457778
18091025676865,-5.3042,3.17651,-7.47144,0,0,0
18091025887920,-5.3042,3.17651,-7.47144,0,0,0
18091026098809,-5.3042,3.17651,-7.47144,0,0,0
18091026309235,-5.3042,3.17651,-7.47144,0,0,0
18091026520698,-5.3042,3.17651,-7.47144,0,0,0
18091026731383,-5.3042,3.17651,-7.47144,0,0,0
18091026942791,-5.3042,3.17651,-7.47144,0,0,0
18091027153550,-5.3042,3.17651,-7.47144,0,0,0
18091027363994,-5.3042,3.17651,-7.47144,0,0,0
18091027575142,-5.3042,3.17651,-7.47144,0,0,0
18091027785754,-5.3042,3.17651,-7.47144,0,0,0
18091027996198,-5.3042,3.17651,-7.47144,0,0,0
18091028243550,-5.3042,3.17651,-7.47144,0,0,0
18091028455124,-5.3042,3.17651,-7.47144,0,0,0
18091028666087,-5.3042,3.17651,-7.47144,0,0,0
18091028877587,-5.3042,3.17651,-7.47144,0,0,0
18091029088346,-5.3042,3.17651,-7.47144,0,0,0
18091029298716,-5.3042,3.17651,-7.47144,0,0,0
18091029509272,-5.3042,3.17651,-7.47144,0,0,0
18091029720291,-5.3042,3.17651,-7.47144,0,0,0
18091029931013,-5.3042,3.17651,-7.47144,0,0,0
18091030141328,-5.3042,3.17651,-7.47144,0,0,0
18091030351994,-5.3042,3.17651,-7.47144,0,0,0
18091030562716,-5.3042,3.17651,-7.47144,0,0,0
18091030773698,-5.3042,3.17651,-7.47144,0,0,0
18091030984291,-2.37451,0.979248,-3.80933,0,0,0
18091031196624,-2.37451,0.979248,-3.80933,0,0,0
18091031408661,-2.37451,0.979248,-3.80933,0,0,0
18091031620328,-2.37451,0.979248,-3.80933,0,0,0
18091031831716,-2.37451,0.979248,-3.80933,0,0,0
18091032065550,-2.37451,0.979248,-3.80933,0,0,0
18091032287661,-2.37451,0.979248,-3.80933,0,0,0
18091032499420,-2.37451,0.979248,-3.80933,0,0,0
18091032711476,-2.37451,0.979248,-3.80933,0,0,0
18091032952531,-2.37451,0.979248,-3.80933,0.21363,0.396741,-0.183111
18091033166383,-2.37451,0.979248,-3.80933,0.21363,0.396741,-0.183111
18091033378865,-2.37451,0.979248,-3.80933,0.21363,0.396741,-0.183111
18091033591587,-2.37451,0.979248,-3.80933,0.21363,0.396741,-0.183111
18091033803457,-2.37451,0.979248,-3.80933,0.21363,0.396741,-0.183111
18091034015642,-2.37451,0.979248,-3.80933,0.21363,0.396741,-0.183111
18091034228828,-2.37451,0.979248,-3.80933,0.21363,0.396741,-0.183111
18091034441291,-2.37451,0.979248,-3.80933,0.21363,0.396741,-0.183111
18091034653994,-2.37451,0.979248,-3.80933,0.21363,0.396741,-0.183111
18091034866624,-2.37451,0.979248,-3.80933,0.21363,0.396741,-0.183111
18091035079254,-2.37451,0.979248,-3.80933,0.21363,0.396741,-0.183111
18091035292087,-2.37451,0.979248,-3.80933,0.21363,0.396741,-0.183111
18091035504439,-2.37451,0.979248,-3.80933,0.21363,0.396741,-0.183111
18091035716365,-2.37451,0.979248,-3.80933,0.21363,0.396741,-0.183111
18091035929346,-2.37451,0.979248,-3.80933,0.21363,0.396741,-0.183111
18091036174124,-2.37451,0.979248,-3.80933,0.21363,0.396741,-0.183111
18091036395828,-2.37451,0.979248,-3.80933,0.21363,0.396741,-0.183111
18091036607976,-2.37451,0.979248,-3.80933,0.21363,0.396741,-0.183111
18091036820272,-2.37451,0.979248,-3.80933,0.21363,0.396741,-0.183111
18091037032420,-2.37451,0.979248,-3.80933,0.21363,0.396741,-0.183111
18091037245050,-2.37451,0.979248,-3.80933,0.21363,0.396741,-0.183111
18091037457735,-2.37451,0.979248,-3.80933,0.21363,0.396741,-0.183111
18091037670124,-2.37451,0.979248,-3.80933,0.21363,0.396741,-0.183111
18091037882531,-2.37451,0.979248,-3.80933,0.21363,0.396741,-0.183111
18091038094865,-2.37451,0.979248,-3.80933,0.21363,0.396741,-0.183111
18091038306846,-2.37451,0.979248,-3.80933,0.21363,0.396741,-0.183111
18091038519087,-2.37451,0.979248,-3.80933,0.21363,0.396741,-0.183111
18091038730754,-2.37451,0.979248,-3.80933,0.21363,0.396741,-0.183111
18091038943124,-2.37451,0.979248,-3.80933,0.21363,0.396741,-0.183111
18091039155254,-2.37451,0.979248,-3.80933,0.21363,0.396741,-0.183111
18091039373254,-2.37451,0.979248,-3.80933,0.21363,0.396741,-0.183111
18091039586402,-2.37451,0.979248,-3.80933,0.21363,0.396741,-0.183111
18091039798420,-2.37451,0.979248,-3.80933,0.21363,0.396741,-0.183111
18091040023457,-2.37451,0.979248,-3.80933,0.21363,0.396741,-0.183111
18091040245976,-2.37451,0.979248,-3.80933,0.21363,0.396741,-0.183111
18091040458272,-2.37451,0.979248,-3.80933,0.21363,0.396741,-0.183111
18091040670550,-2.37451,0.979248,-3.80933,0.21363,0.396741,-0.183111
18091040882624,-2.37451,-0.485596,-4.54175,0.21363,0.396741,-0.183111
18091041095179,-2.37451,-0.485596,-4.54175,0.21363,0.396741,-0.183111
18091041307883,-2.37451,-0.485596,-4.54175,0.21363,0.396741,-0.183111
18091041520124,-2.37451,-0.485596,-4.54175,0.21363,0.396741,-0.183111
18091041732698,-2.37451,-0.485596,-4.54175,0.061037,-0.274667,-0.183111
18091041945791,-2.37451,-0.485596,-4.54175,0.061037,-0.274667,-0.183111
18091042158568,-2.37451,-0.485596,-4.54175,0.061037,-0.274667,-0.183111
18091042371772,-2.37451,-0.485596,-4.54175,0.061037,-0.274667,-0.183111
18091042591179,-2.37451,-0.485596,-4.54175,0.061037,-0.274667,-0.183111
18091042804457,-2.37451,-0.485596,-4.54175,0.061037,-0.274667,-0.183111
18091043017494,-2.37451,-0.485596,-4.54175,0.061037,-0.274667,-0.183111
18091043229865,-2.37451,-0.485596,-4.54175,0.061037,-0.274667,-0.183111
18091043442365,-2.37451,-0.485596,-4.54175,0.061037,-0.274667,-0.183111
18091043655698,-2.37451,-0.485596,-4.54175,0.061037,-0.274667,-0.183111
18091043868179,-2.37451,-0.485596,-4.54175,0.061037,-0.274667,-0.183111
18091044084328,-2.37451,-0.485596,-4.54175,0.061037,-0.274667,-0.183111
18091044306957,-2.37451,-0.485596,-4.54175,0.061037,-0.274667,-0.183111
18091044519568,-2.37451,-0.485596,-4.54175,0.061037,-0.274667,-0.183111
18091044732642,-2.37451,-0.485596,-4.54175,0.061037,-0.274667,-0.183111
18091044945754,-2.37451,-0.485596,-4.54175,0.061037,-0.274667,-0.183111
18091045158809,-2.37451,-0.485596,-4.54175,0.061037,-0.274667,-0.183111
18091045372735,-2.37451,-0.485596,-4.54175,0.061037,-0.274667,-0.183111
18091045614791,-2.37451,-0.485596,-4.54175,0,0,0
18091045827531,-2.37451,-0.485596,-4.54175,0,0,0
18091046039716,-2.37451,-0.485596,-4.54175,0,0,0
18091046251402,-2.37451,-0.485596,-4.54175,0,0,0
18091046462642,-2.37451,-0.485596,-4.54175,0,0,0
18091046674568,-2.37451,-0.485596,-4.54175,0,0,0
18091046885957,-2.37451,-0.485596,-4.54175,0,0,0
18091047097383,-2.37451,-0.485596,-4.54175,0,0,0
18091047308753,-2.37451,-0.485596,-4.54175,0,0,0
18091047520050,-2.37451,-0.485596,-4.54175,0,0,0
18091047731568,-2.37451,-0.485596,-4.54175,0,0,0
18091047942587,-2.37451,-0.485596,-4.54175,0,0,0
18091048188568,-2.37451,-0.485596,-4.54175,0,0,0
18091048400309,-2.37451,-0.485596,-4.54175,0,0,0
18091048611957,-2.37451,-0.485596,-4.54175,0,0,0
18091048823291,-2.37451,-0.485596,-4.54175,0,0,0
18091049035050,-2.37451,-0.485596,-4.54175,0,0,0
18091049246420,-2.37451,-0.485596,-4.54175,0,0,0
18091049457920,-2.37451,-0.485596,-4.54175,0,0,0
18091049669550,-2.37451,-0.485596,-4.54175,0,0,0
18091049887809,-2.37451,-0.485596,-4.54175,0,0,0
18091050099939,-2.37451,-0.485596,-4.54175,0,0,0
18091050311494,-2.37451,-0.485596,-4.54175,0,0,0
18091050523124,-2.37451,-0.485596,-4.54175,0,0,0
18091050734420,0.555176,0.979248,-1.61206,0,0,0
18091050947179,0.555176,0.979248,-1.61206,0,0,0
18091051159124,0.555176,0.979248,-1.61206,0,0,0
18091051370735,0.555176,0.979248,-1.61206,0,0,0
18091051582068,0.555176,0.979248,-1.61206,0,0,0
18091051794309,0.555176,0.979248,-1.61206,0,0,0
18091052024383,0.555176,0.979248,-1.61206,0,0,0
18091052247420,0.555176,0.979248,-1.61206,0,0,0
18091052459494,0.555176,0.979248,-1.61206,0,0,0
18091052671439,0.555176,0.979248,-1.61206,0,0,0
18091052883383,0.555176,0.979248,-1.61206,-0.122074,-0.274667,0.0915555
18091053097513,0.555176,0.979248,-1.61206,-0.122074,-0.274667,0.0915555
18091053310735,0.555176,0.979248,-1.61206,-0.122074,-0.274667,0.0915555
18091053523846,0.555176,0.979248,-1.61206,-0.122074,-0.274667,0.0915555
18091053737587,0.555176,0.979248,-1.61206,-0.122074,-0.274667,0.0915555
18091053956476,0.555176,0.979248,-1.61206,-0.122074,-0.274667,0.0915555
18091054170605,0.555176,0.979248,-1.61206,-0.122074,-0.274667,0.0915555
18091054383828,0.555176,0.979248,-1.61206,-0.122074,-0.274667,0.0915555
18091054597087,0.555176,0.979248,-1.61206,-0.122074,-0.274667,0.0915555
18091054811068,0.555176,0.979248,-1.61206,-0.122074,-0.274667,0.0915555
18091055024661,0.555176,0.979248,-1.61206,-0.122074,-0.274667,0.0915555
18091055237568,0.555176,0.979248,-1.61206,-0.122074,-0.274667,0.0915555
18091055450883,0.555176,0.979248,-1.61206,-0.122074,-0.274667,0.0915555
18091055664105,0.555176,0.979248,-1.61206,-0.122074,-0.274667,0.0915555
18091055877587,0.555176,0.979248,-1.61206,-0.122074,-0.274667,0.0915555
18091056090772,0.555176,0.979248,-1.61206,-0.122074,-0.274667,0.0915555
18091056312179,0.555176,0.979248,-1.61206,-0.122074,-0.274667,0.0915555
18091056525124,0.555176,0.979248,-1.61206,-0.122074,-0.274667,0.0915555
18091056738105,0.555176,0.979248,-1.61206,-0.122074,-0.274667,0.0915555
18091056951809,0.555176,0.979248,-1.61206,-0.122074,-0.274667,0.0915555
18091057170642,0.555176,0.979248,-1.61206,-0.122074,-0.274667,0.0915555
18091057384253,0.555176,0.979248,-1.61206,-0.122074,-0.274667,0.0915555
18091057596828,0.555176,0.979248,-1.61206,-0.122074,-0.274667,0.0915555
18091057809624,0.555176,0.979248,-1.61206,-0.122074,-0.274667,0.0915555
18091058022661,0.555176,0.979248,-1.61206,-0.122074,-0.274667,0.0915555
18091058235494,0.555176,0.979248,-1.61206,-0.122074,-0.274667,0.0915555
18091058448161,0.555176,0.979248,-1.61206,-0.122074,-0.274667,0.0915555
18091058661291,0.555176,0.979248,-1.61206,-0.122074,-0.274667,0.0915555
18091058873828,0.555176,0.979248,-1.61206,-0.122074,-0.274667,0.0915555
18091059087161,0.555176,0.979248,-1.61206,-0.122074,-0.274667,0.0915555
18091059300291,0.555176,0.979248,-1.61206,-0.122074,-0.274667,0.0915555
18091059513365,0.555176,0.979248,-1.61206,-0.122074,-0.274667,0.0915555
18091059726902,0.555176,0.979248,-1.61206,-0.122074,-0.274667,0.0915555
18091059940198,0.555176,0.979248,-1.61206,-0.122074,-0.274667,0.0915555
18091060216679,0.555176,0.979248,-1.61206,-0.122074,-0.274667,0.0915555
18091060430513,0.555176,0.979248,-1.61206,-0.122074,-0.274667,0.0915555
18091060643846,0.555176,0.979248,-2.34448,-0.122074,-0.274667,0.0915555
18091060857013,0.555176,0.979248,-2.34448,-0.122074,-0.274667,0.0915555
18091061070753,0.555176,0.979248,-2.34448,-0.122074,-0.274667,0.0915555
18091061284235,0.555176,0.979248,-2.34448,-0.122074,-0.274667,0.0915555
18091061497439,0.555176,0.979248,-2.34448,-0.122074,-0.274667,0.0915555
18091061710679,0.555176,0.979248,-2.34448,0.152593,0.0305185,-0.488296
18091061923587,0.555176,0.979248,-2.34448,0.152593,0.0305185,-0.488296
18091062137328,0.555176,0.979248,-2.34448,0.152593,0.0305185,-0.488296
18091062350772,0.555176,0.979248,-2.34448,0.152593,0.0305185,-0.488296
18091062563679,0.555176,0.979248,-2.34448,0.152593,0.0305185,-0.488296
18091062776253,0.555176,0.979248,-2.34448,0.152593,0.0305185,-0.488296
18091062989494,0.555176,0.979248,-2.34448,0.152593,0.0305185,-0.488296
18091063210605,0.555176,0.979248,-2.34448,0.152593,0.0305185,-0.488296
18091063424791,0.555176,0.979248,-2.34448,0.152593,0.0305185,-0.488296
18091063638642,0.555176,0.979248,-2.34448,0.152593,0.0305185,-0.488296
18091063851661,0.555176,0.979248,-2.34448,0.152593,0.0305185,-0.488296
18091064064791,0.555176,0.979248,-2.34448,0.152593,0.0305185,-0.488296
18091064285902,0.555176,0.979248,-2.34448,0.152593,0.0305185,-0.488296
18091064498828,0.555176,0.979248,-2.34448,0.152593,0.0305185,-0.488296
18091064711902,0.555176,0.979248,-2.34448,0.152593,0.0305185,-0.488296
18091064924309,0.555176,0.979248,-2.34448,0.152593,0.0305185,-0.488296
18091065137124,0.555176,0.979248,-2.34448,0.152593,0.0305185,-0.488296
18091065349883,0.555176,0.979248,-2.34448,0.152593,0.0305185,-0.488296
18091065563050,0.555176,0.979248,-2.34448,0,0,0
18091065775179,0.555176,0.979248,-2.34448,0,0,0
18091065987365,0.555176,0.979248,-2.34448,0,0,0
18091066199402,0.555176,0.979248,-2.34448,0,0,0
18091066410957,0.555176,0.979248,-2.34448,0,0,0
18091066627994,0.555176,0.979248,-2.34448,0,0,0
18091066840587,0.555176,0.979248,-2.34448,0,0,0
18091067052050,0.555176,0.979248,-2.34448,0,0,0
18091067263920,0.555176,0.979248,-2.34448,0,0,0
18091067475494,0.555176,0.979248,-2.34448,0,0,0
18091067688105,0.555176,0.979248,-2.34448,0,0,0
18091067900309,0.555176,0.979248,-2.34448,0,0,0
18091068077087,0.555176,0.979248,-2.34448,0,0,0
18091068299568,0.555176,0.979248,-2.34448,0,0,0
18091068511753,0.555176,0.979248,-2.34448,0,0,0
18091068724031,0.555176,0.979248,-2.34448,0,0,0
18091068935920,0.555176,0.979248,-2.34448,0,0,0
18091069147346,0.555176,0.979248,-2.34448,0,0,0
18091069359198,0.555176,0.979248,-2.34448,0,0,0
18091069571365,0.555176,0.979248,-2.34448,0,0,0
18091069783494,0.555176,0.979248,-2.34448,0,0,0
18091069994976,0.555176,0.979248,-2.34448,0,0,0
18091070206716,0.555176,0.979248,-2.34448,0,0,0
18091070418716,0.555176,0.979248,-2.34448,0,0,0
18091070630420,-0.909668,1.71167,-1.61206,0,0,0
18091070842828,-0.909668,1.71167,-1.61206,0,0,0
18091071060272,-0.909668,1.71167,-1.61206,0,0,0
18091071272235,-0.909668,1.71167,-1.61206,0,0,0
18091071483791,-0.909668,1.71167,-1.61206,0,0,0
18091071695068,-0.909668,1.71167,-1.61206,0,0,0
18091071907605,-0.909668,1.71167,-1.61206,0,0,0
18091072118457,-0.909668,1.71167,-1.61206,0,0,0
18091072339698,-0.909668,1.71167,-1.61206,0,0,0
18091072552883,-0.909668,1.71167,-1.61206,0,0,0
18091072764605,-0.909668,1.71167,-1.61206,0.0915555,0.152593,-0.21363
18091072978198,-0.909668,1.71167,-1.61206,0.0915555,0.152593,-0.21363
18091073190902,-0.909668,1.71167,-1.61206,0.0915555,0.152593,-0.21363
18091073403939,-0.909668,1.71167,-1.61206,0.0915555,0.152593,-0.21363
18091073616976,-0.909668,1.71167,-1.61206,0.0915555,0.152593,-0.21363
18091073830050,-0.909668,1.71167,-1.61206,0.0915555,0.152593,-0.21363
18091074042661,-0.909668,1.71167,-1.61206,0.0915555,0.152593,-0.21363
18091074255605,-0.909668,1.71167,-1.61206,0.0915555,0.152593,-0.21363
18091074468661,-0.909668,1.71167,-1.61206,0.0915555,0.152593,-0.21363
18091074710716,-0.909668,1.71167,-1.61206,0.0915555,0.152593,-0.21363
18091074924772,-0.909668,1.71167,-1.61206,0.0915555,0.152593,-0.21363
18091075137735,-0.909668,1.71167,-1.61206,0.0915555,0.152593,-0.21363
18091075351383,-0.909668,1.71167,-1.61206,0.0915555,0.152593,-0.21363
18091075563976,-0.909668,1.71167,-1.61206,0.0915555,0.152593,-0.21363
18091075777883,-0.909668,1.71167,-1.61206,0.0915555,0.152593,-0.21363
18091075991031,-0.909668,1.71167,-1.61206,0.0915555,0.152593,-0.21363
18091076236235,-0.909668,1.71167,-1.61206,0.0915555,0.152593,-0.21363
18091076449920,-0.909668,1.71167,-1.61206,0.0915555,0.152593,-0.21363
18091076662772,-0.909668,1.71167,-1.61206,0.0915555,0.152593,-0.21363
18091076875957,-0.909668,1.71167,-1.61206,0.0915555,0.152593,-0.21363
18091077089309,-0.909668,1.71167,-1.61206,0.0915555,0.152593,-0.21363
18091077302402,-0.909668,1.71167,-1.61206,0.0915555,0.152593,-0.21363
18091077515439,-0.909668,1.71167,-1.61206,0.0915555,0.152593,-0.21363
18091077728531,-0.909668,1.71167,-1.61206,0.0915555,0.152593,-0.21363
18091077947272,-0.909668,1.71167,-1.61206,0.0915555,0.152593,-0.21363
18091078160476,-0.909668,1.71167,-1.61206,0.0915555,0.152593,-0.21363
18091078373513,-0.909668,1.71167,-1.61206,0.0915555,0.152593,-0.21363
18091078586161,-0.909668,1.71167,-1.61206,0.0915555,0.152593,-0.21363
18091078799809,-0.909668,1.71167,-1.61206,0.0915555,0.152593,-0.21363
18091079012735,-0.909668,1.71167,-1.61206,0.0915555,0.152593,-0.21363
18091079225902,-0.909668,1.71167,-1.61206,0.0915555,0.152593,-0.21363
18091079438605,-0.909668,1.71167,-1.61206,0.0915555,0.152593,-0.21363
18091079651346,-0.909668,1.71167,-1.61206,0.0915555,0.152593,-0.21363
18091079864716,-0.909668,1.71167,-1.61206,0.0915555,0.152593,-0.21363
18091080081031,-0.909668,1.71167,-1.61206,0.0915555,0.152593,-0.21363
18091080303161,-0.909668,1.71167,-1.61206,0.0915555,0.152593,-0.21363
18091080515902,1.2876,-0.485596,-1.61206,0.0915555,0.152593,-0.21363
18091080729124,1.2876,-0.485596,-1.61206,0.0915555,0.152593,-0.21363
18091080941568,1.2876,-0.485596,-1.61206,0.0915555,0.152593,-0.21363
18091081160179,1.2876,-0.485596,-1.61206,0.0915555,0.152593,-0.21363
18091081373809,1.2876,-0.485596,-1.61206,0.0915555,0.152593,-0.21363
18091081586494,1.2876,-0.485596,-1.61206,0.0915555,0.152593,-0.21363
18091081800124,1.2876,-0.485596,-1.61206,0.274667,0.21363,0.274667
18091082012550,1.2876,-0.485596,-1.61206,0.274667,0.21363,0.274667
18091082225124,1.2876,-0.485596,-1.61206,0.274667,0.21363,0.274667
18091082437939,1.2876,-0.485596,-1.61206,0.274667,0.21363,0.274667
18091082649753,1.2876,-0.485596,-1.61206,0.274667,0.21363,0.274667
18091082862772,1.2876,-0.485596,-1.61206,0.274667,0.21363,0.274667
18091083074735,1.2876,-0.485596,-1.61206,0.274667,0.21363,0.274667
18091083286957,1.2876,-0.485596,-1.61206,0.274667,0.21363,0.274667
18091083499050,1.2876,-0.485596,-1.61206,0.274667,0.21363,0.274667
18091083711087,1.2876,-0.485596,-1.61206,0.274667,0.21363,0.274667
18091083923439,1.2876,-0.485596,-1.61206,0.274667,0.21363,0.274667
18091084161309,1.2876,-0.485596,-1.61206,0.274667,0.21363,0.274667
18091084389531,1.2876,-0.485596,-1.61206,0.274667,0.21363,0.274667
18091084602679,1.2876,-0.485596,-1.61206,0.274667,0.21363,0.274667
18091084814531,1.2876,-0.485596,-1.61206,0.274667,0.21363,0.274667
18091085026679,1.2876,-0.485596,-1.61206,0.274667,0.21363,0.274667
18091085239920,1.2876,-0.485596,-1.61206,0.274667,0.21363,0.274667
18091085451883,1.2876,-0.485596,-1.61206,0.274667,0.21363,0.274667
18091085664272,1.2876,-0.485596,-1.61206,0,0,0
18091085875865,1.2876,-0.485596,-1.61206,0,0,0
18091086088402,1.2876,-0.485596,-1.61206,0,0,0
18091086300179,1.2876,-0.485596,-1.61206,0,0,0
18091086511365,1.2876,-0.485596,-1.61206,0,0,0
18091086722939,1.2876,-0.485596,-1.61206,0,0,0
18091086934365,1.2876,-0.485596,-1.61206,0,0,0
18091087146161,1.2876,-0.485596,-1.61206,0,0,0
18091087358124,1.2876,-0.485596,-1.61206,0,0,0
18091087569902,1.2876,-0.485596,-1.61206,0,0,0
18091087781828,1.2876,-0.485596,-1.61206,0,0,0
18091087993328,1.2876,-0.485596,-1.61206,0,0,0
18091088234420,1.2876,-0.485596,-1.61206,0,0,0
18091088475550,1.2876,-0.485596,-1.61206,0,0,0
18091088687605,1.2876,-0.485596,-1.61206,0,0,0
18091088898865,1.2876,-0.485596,-1.61206,0,0,0
18091089110494,1.2876,-0.485596,-1.61206,0,0,0
18091089322272,1.2876,-0.485596,-1.61206,0,0,0
18091089533420,1.2876,-0.485596,-1.61206,0,0,0
18091089744902,1.2876,-0.485596,-1.61206,0,0,0
18091089956439,1.2876,-0.485596,-1.61206,0,0,0
18091090168716,1.2876,-0.485596,-1.61206,0,0,0
18091090380920,1.2876,-0.485596,-1.61206,0,0,0
18091090592494,0.555176,1.71167,-3.0769,0,0,0
18091090804716,0.555176,1.71167,-3.0769,0,0,0
18091091016439,0.555176,1.71167,-3.0769,0,0,0
18091091228161,0.555176,1.71167,-3.0769,0,0,0
18091091439753,0.555176,1.71167,-3.0769,0,0,0
18091091651272,0.555176,1.71167,-3.0769,0,0,0
18091091863383,0.555176,1.71167,-3.0769,0,0,0
18091092078161,0.555176,1.71167,-3.0769,0,0,0
18091092299402,0.555176,1.71167,-3.0769,0,0,0
18091092510939,0.555176,1.71167,-3.0769,0,0,0
18091092723309,0.555176,1.71167,-3.0769,0.244148,0.427259,0
18091092935939,0.555176,1.71167,-3.0769,0.244148,0.427259,0
18091093153920,0.555176,1.71167,-3.0769,0.244148,0.427259,0
18091093367587,0.555176,1.71167,-3.0769,0.244148,0.427259,0
18091093580809,0.555176,1.71167,-3.0769,0.244148,0.427259,0
18091093793253,0.555176,1.71167,-3.0769,0.244148,0.427259,0
18091094005420,0.555176,1.71167,-3.0769,0.244148,0.427259,0
18091094217216,0.555176,1.71167,-3.0769,0.244148,0.427259,0
18091094429494,0.555176,1.71167,-3.0769,0.244148,0.427259,0
18091094642661,0.555176,1.71167,-3.0769,0.244148,0.427259,0
18091094855420,0.555176,1.71167,-3.0769,0.244148,0.427259,0
18091095067476,0.555176,1.71167,-3.0769,0.244148,0.427259,0
18091095280068,0.555176,1.71167,-3.0769,0.244148,0.427259,0
18091095492587,0.555176,1.71167,-3.0769,0.244148,0.427259,0
18091095705550,0.555176,1.71167,-3.0769,0.244148,0.427259,0
18091095918309,0.555176,1.71167,-3.0769,0.244148,0.427259,0
18091096154883,0.555176,1.71167,-3.0769,0.244148,0.427259,0
18091096376883,0.555176,1.71167,-3.0769,0.244148,0.427259,0
18091096588716,0.555176,1.71167,-3.0769,0.244148,0.427259,0
18091096806531,0.555176,1.71167,-3.0769,0.244148,0.427259,0
18091097019050,0.555176,1.71167,-3.0769,0.244148,0.427259,0
18091097231235,0.555176,1.71167,-3.0769,0.244148,0.427259,0
18091097444420,0.555176,1.71167,-3.0769,0.244148,0.427259,0
18091097656216,0.555176,1.71167,-3.0769,0.244148,0.427259,0
18091097867753,0.555176,1.71167,-3.0769,0.244148,0.427259,0
18091098080142,0.555176,1.71167,-3.0769,0.244148,0.427259,0
18091098292161,0.555176,1.71167,-3.0769,0.244148,0.427259,0
18091098504902,0.555176,1.71167,-3.0769,0.244148,0.427259,0
18091098717309,0.555176,1.71167,-3.0769,0.244148,0.427259,0
18091098929494,0.555176,1.71167,-3.0769,0.244148,0.427259,0
18091099141846,0.555176,1.71167,-3.0769,0.244148,0.427259,0
18091099353994,0.555176,1.71167,-3.0769,0.244148,0.427259,0
18091099565698,0.555176,1.71167,-3.0769,0.244148,0.427259,0
18091099777531,0.555176,1.71167,-3.0769,0.244148,0.427259,0
18091099989328,0.555176,1.71167,-3.0769,0.244148,0.427259,0
18091100230679,0.555176,1.71167,-3.0769,0.244148,0.427259,0
18091100451328,-2.37451,1.71167,-1.61206,0.244148,0.427259,0
18091100663642,-2.37451,1.71167,-1.61206,0.244148,0.427259,0
18091100875902,-2.37451,1.71167,-1.61206,0.244148,0.427259,0
18091101087661,-2.37451,1.71167,-1.61206,0.244148,0.427259,0
18091101299328,-2.37451,1.71167,-1.61206,0.244148,0.427259,0
18091101511142,-2.37451,1.71167,-1.61206,0.244148,0.427259,0
18091101722716,-2.37451,1.71167,-1.61206,0.21363,0.61037,0
18091101934902,-2.37451,1.71167,-1.61206,0.21363,0.61037,0
18091102147142,-2.37451,1.71167,-1.61206,0.21363,0.61037,0
18091102358883,-2.37451,1.71167,-1.61206,0.21363,0.61037,0
18091102571494,-2.37451,1.71167,-1.61206,0.21363,0.61037,0
18091102782828,-2.37451,1.71167,-1.61206,0.21363,0.61037,0
18091102994142,-2.37451,1.71167,-1.61206,0.21363,0.61037,0
18091103205772,-2.37451,1.71167,-1.61206,0.21363,0.61037,0
18091103418476,-2.37451,1.71167,-1.61206,0.21363,0.61037,0
18091103630087,-2.37451,1.71167,-1.61206,0.21363,0.61037,0
18091103841957,-2.37451,1.71167,-1.61206,0.21363,0.61037,0
18091104083791,-2.37451,1.71167,-1.61206,0.21363,0.61037,0
18091104305531,-2.37451,1.71167,-1.61206,0.21363,0.61037,0
18091104517809,-2.37451,1.71167,-1.61206,0.21363,0.61037,0
18091104729939,-2.37451,1.71167,-1.61206,0.21363,0.61037,0
18091104941550,-2.37451,1.71167,-1.61206,0.21363,0.61037,0
18091105153920,-2.37451,1.71167,-1.61206,0.21363,0.61037,0
18091105365939,-2.37451,1.71167,-1.61206,0.21363,0.61037,0
18091105577550,-2.37451,1.71167,-1.61206,0,0,0
18091105788624,-2.37451,1.71167,-1.61206,0,0,0
18091105999272,-2.37451,1.71167,-1.61206,0,0,0
18091106210420,-2.37451,1.71167,-1.61206,0,0,0
18091106421179,-2.37451,1.71167,-1.61206,0,0,0
18091106632068,-2.37451,1.71167,-1.61206,0,0,0
18091106842902,-2.37451,1.71167,-1.61206,0,0,0
18091107053031,-2.37451,1.71167,-1.61206,0,0,0
18091107264013,-2.37451,1.71167,-1.61206,0,0,0
18091107474420,-2.37451,1.71167,-1.61206,0,0,0
18091107685179,-2.37451,1.71167,-1.61206,0,0,0
18091107895846,-2.37451,1.71167,-1.61206,0,0,0
18091108109235,-2.37451,1.71167,-1.61206,0,0,0
18091108334976,-2.37451,1.71167,-1.61206,0,0,0
18091108546328,-2.37451,1.71167,-1.61206,0,0,0
18091108757457,-2.37451,1.71167,-1.61206,0,0,0
18091108968568,-2.37451,1.71167,-1.61206,0,0,0
18091109179439,-2.37451,1.71167,-1.61206,0,0,0
18091109390013,-2.37451,1.71167,-1.61206,0,0,0
18091109600976,-2.37451,1.71167,-1.61206,0,0,0
18091109811865,-2.37451,1.71167,-1.61206,0,0,0
18091110021994,-2.37451,1.71167,-1.61206,0,0,0
18091110232216,-2.37451,1.71167,-1.61206,0,0,0
18091110442587,-5.3042,0.246826,-3.80933,0,0,0
18091110654513,-5.3042,0.246826,-3.80933,0,0,0
18091110866420,-5.3042,0.246826,-3.80933,0,0,0
18091111077253,-5.3042,0.246826,-3.80933,0,0,0
18091111289253,-5.3042,0.246826,-3.80933,0,0,0
18091111500809,-5.3042,0.246826,-3.80933,0,0,0
18091111712790,-5.3042,0.246826,-3.80933,0,0,0
18091111924439,-5.3042,0.246826,-3.80933,0,0,0
18091112160865,-5.3042,0.246826,-3.80933,0,0,0
18091112381253,-5.3042,0.246826,-3.80933,0,0,0
18091112592568,-5.3042,0.246826,-3.80933,0,0,0
18091112804605,-5.3042,0.246826,-3.80933,0.0915555,0.183111,0.305185
18091113023476,-5.3042,0.246826,-3.80933,0.0915555,0.183111,0.305185
18091113236753,-5.3042,0.246826,-3.80933,0.0915555,0.183111,0.305185
18091113449587,-5.3042,0.246826,-3.80933,0.0915555,0.183111,0.305185
18091113662050,-5.3042,0.246826,-3.80933,0.0915555,0.183111,0.305185
18091113874902,-5.3042,0.246826,-3.80933,0.0915555,0.183111,0.305185
18091114087939,-5.3042,0.246826,-3.80933,0.0915555,0.183111,0.305185
18091114301105,-5.3042,0.246826,-3.80933,0.0915555,0.183111,0.305185
18091114513809,-5.3042,0.246826,-3.80933,0.0915555,0.183111,0.305185
18091114726642,-5.3042,0.246826,-3.80933,0.0915555,0.183111,0.305185
18091114939457,-5.3042,0.246826,-3.80933,0.0915555,0.183111,0.305185
18091115152476,-5.3042,0.246826,-3.80933,0.0915555,0.183111,0.305185
18091115364642,-5.3042,0.246826,-3.80933,0.0915555,0.183111,0.305185
18091115577531,-5.3042,0.246826,-3.80933,0.0915555,0.183111,0.305185
18091115790068,-5.3042,0.246826,-3.80933,0.0915555,0.183111,0.305185
18091116024216,-5.3042,0.246826,-3.80933,0.0915555,0.183111,0.305185
18091116248031,-5.3042,0.246826,-3.80933,0.0915555,0.183111,0.305185
18091116461328,-5.3042,0.246826,-3.80933,0.0915555,0.183111,0.305185
18091116674865,-5.3042,0.246826,-3.80933,0.0915555,0.183111,0.305185
18091116888309,-5.3042,0.246826,-3.80933,0.0915555,0.183111,0.305185
18091117101457,-5.3042,0.246826,-3.80933,0.0915555,0.183111,0.305185
18091117313753,-5.3042,0.246826,-3.80933,0.0915555,0.183111,0.305185
18091117527142,-5.3042,0.246826,-3.80933,0.0915555,0.183111,0.305185
18091117740809,-5.3042,0.246826,-3.80933,0.0915555,0.183111,0.305185
18091117953013,-5.3042,0.246826,-3.80933,0.0915555,0.183111,0.305185
18091118165476,-5.3042,0.246826,-3.80933,0.0915555,0.183111,0.305185
18091118378920,-5.3042,0.246826,-3.80933,0.0915555,0.183111,0.305185
18091118591902,-5.3042,0.246826,-3.80933,0.0915555,0.183111,0.305185
18091118804679,-5.3042,0.246826,-3.80933,0.0915555,0.183111,0.305185
18091119017142,-5.3042,0.246826,-3.80933,0.0915555,0.183111,0.305185
18091119259216,-5.3042,0.246826,-3.80933,0.0915555,0.183111,0.305185
18091119473513,-5.3042,0.246826,-3.80933,0.0915555,0.183111,0.305185
18091119686290,-5.3042,0.246826,-3.80933,0.0915555,0.183111,0.305185
18091119899198,-5.3042,0.246826,-3.80933,0.0915555,0.183111,0.305185
18091120074124,-5.3042,0.246826,-3.80933,0.0915555,0.183111,0.305185
18091120296402,-2.37451,3.90894,-6.00659,0.0915555,0.183111,0.305185
18091120509161,-2.37451,3.90894,-6.00659,0.0915555,0.183111,0.305185
18091120721790,-2.37451,3.90894,-6.00659,0.0915555,0.183111,0.305185
18091120934142,-2.37451,3.90894,-6.00659,0.0915555,0.183111,0.305185
18091121147087,-2.37451,3.90894,-6.00659,0.0915555,0.183111,0.305185
18091121360013,-2.37451,3.90894,-6.00659,0.0915555,0.183111,0.305185
18091121572198,-2.37451,3.90894,-6.00659,0.0915555,0.183111,0.305185
18091121785031,-2.37451,3.90894,-6.00659,0.21363,0.274667,0.152593
18091121996865,-2.37451,3.90894,-6.00659,0.21363,0.274667,0.152593
18091122209568,-2.37451,3.90894,-6.00659,0.21363,0.274667,0.152593
18091122427328,-2.37451,3.90894,-6.00659,0.21363,0.274667,0.152593
18091122640420,-2.37451,3.90894,-6.00659,0.21363,0.274667,0.152593
18091122852198,-2.37451,3.90894,-6.00659,0.21363,0.274667,0.152593
18091123063624,-2.37451,3.90894,-6.00659,0.21363,0.274667,0.152593
18091123275790,-2.37451,3.90894,-6.00659,0.21363,0.274667,0.152593
18091123488087,-2.37451,3.90894,-6.00659,0.21363,0.274667,0.152593
18091123699661,-2.37451,3.90894,-6.00659,0.21363,0.274667,0.152593
18091123911476,-2.37451,3.90894,-6.00659,0.21363,0.274667,0.152593
18091124140828,-2.37451,3.90894,-6.00659,0.21363,0.274667,0.152593
18091124362365,-2.37451,3.90894,-6.00659,0.21363,0.274667,0.152593
18091124574383,-2.37451,3.90894,-6.00659,0.21363,0.274667,0.152593
18091124786328,-2.37451,3.90894,-6.00659,0.21363,0.274667,0.152593
18091124998790,-2.37451,3.90894,-6.00659,0.21363,0.274667,0.152593
18091125210642,-2.37451,3.90894,-6.00659,0.21363,0.274667,0.152593
18091125422957,-2.37451,3.90894,-6.00659,0.21363,0.274667,0.152593
18091125640568,-2.37451,3.90894,-6.00659,0,0,0
18091125852383,-2.37451,3.90894,-6.00659,0,0,0
18091126062920,-2.37451,3.90894,-6.00659,0,0,0
18091126273716,-2.37451,3.90894,-6.00659,0,0,0
18091126484365,-2.37451,3.90894,-6.00659,0,0,0
18091126695198,-2.37451,3.90894,-6.00659,0,0,0
18091126905587,-2.37451,3.90894,-6.00659,0,0,0
18091127116253,-2.37451,3.90894,-6.00659,0,0,0
18091127326976,-2.37451,3.90894,-6.00659,0,0,0
18091127537883,-2.37451,3.90894,-6.00659,0,0,0
18091127748513,-2.37451,3.90894,-6.00659,0,0,0
18091127959605,-2.37451,3.90894,-6.00659,0,0,0
18091128205013,-2.37451,3.90894,-6.00659,0,0,0
18091128416124,-2.37451,3.90894,-6.00659,0,0,0
18091128626309,-2.37451,3.90894,-6.00659,0,0,0
18091128836605,-2.37451,3.90894,-6.00659,0,0,0
18091129047402,-2.37451,3.90894,-6.00659,0,0,0
18091129258550,-2.37451,3.90894,-6.00659,0,0,0
18091129469679,-2.37451,3.90894,-6.00659,0,0,0
18091129679902,-2.37451,3.90894,-6.00659,0,0,0
18091129890068,-2.37451,3.90894,-6.00659,0,0,0
18091130100587,-2.37451,3.90894,-6.00659,0,0,0
18091130317365,-3.10693,1.71167,-4.54175,0,0,0
18091130529105,-3.10693,1.71167,-4.54175,0,0,0
18091130739846,-3.10693,1.71167,-4.54175,0,0,0
18091130950828,-3.10693,1.71167,-4.54175,0,0,0
18091131161568,-3.10693,1.71167,-4.54175,0,0,0
18091131372994,-3.10693,1.71167,-4.54175,0,0,0
18091131583939,-3.10693,1.71167,-4.54175,0,0,0
18091131794790,-3.10693,1.71167,-4.54175,0,0,0
18091132023735,-3.10693,1.71167,-4.54175,0,0,0
18091132244716,-3.10693,1.71167,-4.54175,0,0,0
18091132456346,-3.10693,1.71167,-4.54175,0,0,0
18091132667105,-3.10693,1.71167,-4.54175,0,0,0
18091132877105,-3.10693,1.71167,-4.54175,0.274667,0.183111,-0.21363
18091133089568,-3.10693,1.71167,-4.54175,0.274667,0.183111,-0.21363
18091133301920,-3.10693,1.71167,-4.54175,0.274667,0.183111,-0.21363
18091133514402,-3.10693,1.71167,-4.54175,0.274667,0.183111,-0.21363
18091133727031,-3.10693,1.71167,-4.54175,0.274667,0.183111,-0.21363
18091133939568,-3.10693,1.71167,-4.54175,0.274667,0.183111,-0.21363
18091134151698,-3.10693,1.71167,-4.54175,0.274667,0.183111,-0.21363
18091134392846,-3.10693,1.71167,-4.54175,0.274667,0.183111,-0.21363
18091134605735,-3.10693,1.71167,-4.54175,0.274667,0.183111,-0.21363
18091134818179,-3.10693,1.71167,-4.54175,0.274667,0.183111,-0.21363
18091135030531,-3.10693,1.71167,-4.54175,0.274667,0.183111,-0.21363
18091135242735,-3.10693,1.71167,-4.54175,0.274667,0.183111,-0.21363
18091135454828,-3.10693,1.71167,-4.54175,0.274667,0.183111,-0.21363
18091135666716,-3.10693,1.71167,-4.54175,0.274667,0.183111,-0.21363
18091135879198,-3.10693,1.71167,-4.54175,0.274667,0.183111,-0.21363
18091136094216,-3.10693,1.71167,-4.54175,0.274667,0.183111,-0.21363
18091136315439,-3.10693,1.71167,-4.54175,0.274667,0.183111,-0.21363
18091136527216,-3.10693,1.71167,-4.54175,0.274667,0.183111,-0.21363
18091136739642,-3.10693,1.71167,-4.54175,0.274667,0.183111,-0.21363
18091136951902,-3.10693,1.71167,-4.54175,0.274667,0.183111,-0.21363
18091137164328,-3.10693,1.71167,-4.54175,0.274667,0.183111,-0.21363
18091137375587,-3.10693,1.71167,-4.54175,0.274667,0.183111,-0.21363
18091137593494,-3.10693,1.71167,-4.54175,0.274667,0.183111,-0.21363
18091137805828,-3.10693,1.71167,-4.54175,0.274667,0.183111,-0.21363
18091138018050,-3.10693,1.71167,-4.54175,0.274667,0.183111,-0.21363
18091138230142,-3.10693,1.71167,-4.54175,0.274667,0.183111,-0.21363
18091138442198,-3.10693,1.71167,-4.54175,0.274667,0.183111,-0.21363
18091138654087,-3.10693,1.71167,-4.54175,0.274667,0.183111,-0.21363
18091138865883,-3.10693,1.71167,-4.54175,0.274667,0.183111,-0.21363
18091139077753,-3.10693,1.71167,-4.54175,0.274667,0.183111,-0.21363
18091139290142,-3.10693,1.71167,-4.54175,0.274667,0.183111,-0.21363
18091139501976,-3.10693,1.71167,-4.54175,0.274667,0.183111,-0.21363
18091139714753,-3.10693,1.71167,-4.54175,0.274667,0.183111,-0.21363
18091139926772,-3.10693,1.71167,-4.54175,0.274667,0.183111,-0.21363
18091140220679,-1.64209,1.71167,-2.34448,0.274667,0.183111,-0.21363
18091140443476,-1.64209,1.71167,-2.34448,0.274667,0.183111,-0.21363
18091140656013,-1.64209,1.71167,-2.34448,0.274667,0.183111,-0.21363
18091140874161,-1.64209,1.71167,-2.34448,0.274667,0.183111,-0.21363
18091141086420,-1.64209,1.71167,-2.34448,0.274667,0.183111,-0.21363
18091141298457,-1.64209,1.71167,-2.34448,0.274667,0.183111,-0.21363
18091141510253,-1.64209,1.71167,-2.34448,0.274667,0.183111,-0.21363
18091141722772,-1.64209,1.71167,-2.34448,0.274667,0.183111,-0.21363
18091141935087,-1.64209,1.71167,-2.34448,-0.0915555,-0.0915555,-0.0305185
18091142148883,-1.64209,1.71167,-2.34448,-0.0915555,-0.0915555,-0.0305185
18091142362124,-1.64209,1.71167,-2.34448,-0.0915555,-0.0915555,-0.0305185
18091142574846,-1.64209,1.71167,-2.34448,-0.0915555,-0.0915555,-0.0305185
18091142787513,-1.64209,1.71167,-2.34448,-0.0915555,-0.0915555,-0.0305185
18091143000513,-1.64209,1.71167,-2.34448,-0.0915555,-0.0915555,-0.0305185
18091143213939,-1.64209,1.71167,-2.34448,-0.0915555,-0.0915555,-0.0305185
18091143426457,-1.64209,1.71167,-2.34448,-0.0915555,-0.0915555,-0.0305185
18091143639457,-1.64209,1.71167,-2.34448,-0.0915555,-0.0915555,-0.0305185
18091143858235,-1.64209,1.71167,-2.34448,-0.0915555,-0.0915555,-0.0305185
18091144074013,-1.64209,1.71167,-2.34448,-0.0915555,-0.0915555,-0.0305185
18091144295642,-1.64209,1.71167,-2.34448,-0.0915555,-0.0915555,-0.0305185
18091144508531,-1.64209,1.71167,-2.34448,-0.0915555,-0.0915555,-0.0305185
18091144721235,-1.64209,1.71167,-2.34448,-0.0915555,-0.0915555,-0.0305185
18091144933902,-1.64209,1.71167,-2.34448,-0.0915555,-0.0915555,-0.0305185
18091145146698,-1.64209,1.71167,-2.34448,-0.0915555,-0.0915555,-0.0305185
18091145359883,-1.64209,1.71167,-2.34448,-0.0915555,-0.0915555,-0.0305185
18091145572809,-1.64209,1.71167,-2.34448,0,0,0
18091145783716,-1.64209,1.71167,-2.34448,0,0,0
18091145994846,-1.64209,1.71167,-2.34448,0,0,0
18091146205550,-1.64209,1.71167,-2.34448,0,0,0
18091146416661,-1.64209,1.71167,-2.34448,0,0,0
18091146627605,-1.64209,1.71167,-2.34448,0,0,0
18091146838902,-1.64209,1.71167,-2.34448,0,0,0
18091147049716,-1.64209,1.71167,-2.34448,0,0,0
18091147259994,-1.64209,1.71167,-2.34448,0,0,0
18091147470605,-1.64209,1.71167,-2.34448,0,0,0
18091147717253,-1.64209,1.71167,-2.34448,0,0,0
18091147927809,-1.64209,1.71167,-2.34448,0,0,0
18091148164013,-1.64209,1.71167,-2.34448,0,0,0
18091148383698,-1.64209,1.71167,-2.34448,0,0,0
18091148594439,-1.64209,1.71167,-2.34448,0,0,0
18091148805439,-1.64209,1.71167,-2.34448,0,0,0
18091149016587,-1.64209,1.71167,-2.34448,0,0,0
18091149227346,-1.64209,1.71167,-2.34448,0,0,0
18091149437513,-1.64209,1.71167,-2.34448,0,0,0
18091149648476,-1.64209,1.71167,-2.34448,0,0,0
18091149859068,-1.64209,1.71167,-2.34448,0,0,0
18091150069513,-0.177246,0.246826,1.31763,0,0,0
18091150282031,-0.177246,0.246826,1.31763,0,0,0
18091150494050,-0.177246,0.246826,1.31763,0,0,0
18091150705661,-0.177246,0.246826,1.31763,0,0,0
18091150916735,-0.177246,0.246826,1.31763,0,0,0
18091151128753,-0.177246,0.246826,1.31763,0,0,0
18091151340161,-0.177246,0.246826,1.31763,0,0,0
18091151551439,-0.177246,0.246826,1.31763,0,0,0
18091151763420,-0.177246,0.246826,1.31763,0,0,0
18091151975124,-0.177246,0.246826,1.31763,0,0,0
18091152217031,-0.177246,0.246826,1.31763,0,0,0
18091152429494,-0.177246,0.246826,1.31763,0,0,0
18091152641328,-0.177246,0.246826,1.31763,0,0,0
18091152853290,-0.177246,0.246826,1.31763,0.0915555,-0.183111,-0.0305185
18091153065994,-0.177246,0.246826,1.31763,0.0915555,-0.183111,-0.0305185
18091153278402,-0.177246,0.246826,1.31763,0.0915555,-0.183111,-0.0305185
18091153491013,-0.177246,0.246826,1.31763,0.0915555,-0.183111,-0.0305185
18091153703846,-0.177246,0.246826,1.31763,0.0915555,-0.183111,-0.0305185
18091153916661,-0.177246,0.246826,1.31763,0.0915555,-0.183111,-0.0305185
18091154129161,-0.177246,0.246826,1.31763,0.0915555,-0.183111,-0.0305185
18091154341828,-0.177246,0.246826,1.31763,0.0915555,-0.183111,-0.0305185
18091154554161,-0.177246,0.246826,1.31763,0.0915555,-0.183111,-0.0305185
18091154767457,-0.177246,0.246826,1.31763,0.0915555,-0.183111,-0.0305185
18091154980198,-0.177246,0.246826,1.31763,0.0915555,-0.183111,-0.0305185
18091155193124,-0.177246,0.246826,1.31763,0.0915555,-0.183111,-0.0305185
18091155410753,-0.177246,0.246826,1.31763,0.0915555,-0.183111,-0.0305185
18091155624161,-0.177246,0.246826,1.31763,0.0915555,-0.183111,-0.0305185
18091155837587,-0.177246,0.246826,1.31763,0.0915555,-0.183111,-0.0305185
18091156053142,-0.177246,0.246826,1.31763,0.0915555,-0.183111,-0.0305185
18091156275235,-0.177246,0.246826,1.31763,0.0915555,-0.183111,-0.0305185
18091156488198,-0.177246,0.246826,1.31763,0.0915555,-0.183111,-0.0305185
18091156701272,-0.177246,0.246826,1.31763,0.0915555,-0.183111,-0.0305185
18091156914198,-0.177246,0.246826,1.31763,0.0915555,-0.183111,-0.0305185
18091157127142,-0.177246,0.246826,1.31763,0.0915555,-0.183111,-0.0305185
18091157340142,-0.177246,0.246826,1.31763,0.0915555,-0.183111,-0.0305185
18091157553568,-0.177246,0.246826,1.31763,0.0915555,-0.183111,-0.0305185
18091157766531,-0.177246,0.246826,1.31763,0.0915555,-0.183111,-0.0305185
18091157979253,-0.177246,0.246826,1.31763,0.0915555,-0.183111,-0.0305185
18091158192031,-0.177246,0.246826,1.31763,0.0915555,-0.183111,-0.0305185
18091158410365,-0.177246,0.246826,1.31763,0.0915555,-0.183111,-0.0305185
18091158623828,-0.177246,0.246826,1.31763,0.0915555,-0.183111,-0.0305185
18091158836753,-0.177246,0.246826,1.31763,0.0915555,-0.183111,-0.0305185
18091159049346,-0.177246,0.246826,1.31763,0.0915555,-0.183111,-0.0305185
18091159261772,-0.177246,0.246826,1.31763,0.0915555,-0.183111,-0.0305185
18091159474976,-0.177246,0.246826,1.31763,0.0915555,-0.183111,-0.0305185
18091159688068,-0.177246,0.246826,1.31763,0.0915555,-0.183111,-0.0305185
18091159901179,-0.177246,0.246826,1.31763,0.0915555,-0.183111,-0.0305185
18091160077753,-0.177246,0.979248,-1.61206,0.0915555,-0.183111,-0.0305185
18091160300253,-0.177246,0.979248,-1.61206,0.0915555,-0.183111,-0.0305185
18091160512920,-0.177246,0.979248,-1.61206,0.0915555,-0.183111,-0.0305185
18091160725902,-0.177246,0.979248,-1.61206,0.0915555,-0.183111,-0.0305185
18091160938124,-0.177246,0.979248,-1.61206,0.0915555,-0.183111,-0.0305185
18091161150216,-0.177246,0.979248,-1.61206,0.0915555,-0.183111,-0.0305185
18091161392624,-0.177246,0.979248,-1.61206,0.0915555,-0.183111,-0.0305185
18091161606253,-0.177246,0.979248,-1.61206,0.0915555,-0.183111,-0.0305185
18091161820013,-0.177246,0.979248,-1.61206,0.122074,0.061037,-0.244148
18091162033087,-0.177246,0.979248,-1.61206,0.122074,0.061037,-0.244148
18091162245772,-0.177246,0.979248,-1.61206,0.122074,0.061037,-0.244148
18091162458883,-0.177246,0.979248,-1.61206,0.122074,0.061037,-0.244148
18091162671716,-0.177246,0.979248,-1.61206,0.122074,0.061037,-0.244148
18091162884605,-0.177246,0.979248,-1.61206,0.122074,0.061037,-0.244148
18091163097198,-0.177246,0.979248,-1.61206,0.122074,0.061037,-0.244148
18091163310328,-0.177246,0.979248,-1.61206,0.122074,0.061037,-0.244148
18091163523272,-0.177246,0.979248,-1.61206,0.122074,0.061037,-0.244148
18091163735661,-0.177246,0.979248,-1.61206,0.122074,0.061037,-0.244148
18091163948068,-0.177246,0.979248,-1.61206,0.122074,0.061037,-0.244148
18091164188772,-0.177246,0.979248,-1.61206,0.122074,0.061037,-0.244148
18091164402087,-0.177246,0.979248,-1.61206,0.122074,0.061037,-0.244148
18091164621383,-0.177246,0.979248,-1.61206,0.122074,0.061037,-0.244148
18091164834790,-0.177246,0.979248,-1.61206,0.122074,0.061037,-0.244148
18091165047753,-0.177246,0.979248,-1.61206,0.122074,0.061037,-0.244148
18091165260809,-0.177246,0.979248,-1.61206,0.122074,0.061037,-0.244148
18091165473550,-0.177246,0.979248,-1.61206,0.122074,0.061037,-117.435
18091165690457,-0.177246,0.979248,-1.61206,0,0,0
18091165902050,-0.177246,0.979248,-1.61206,0,0,0
18091166113568,-0.177246,0.979248,-1.61206,0,0,0
18091166325161,-0.177246,0.979248,-1.61206,0,0,0
18091166536568,-0.177246,0.979248,-1.61206,0,0,0
18091166748087,-0.177246,0.979248,-1.61206,0,0,0
18091166959513,-0.177246,0.979248,-1.61206,0,0,0
18091167170716,-0.177246,0.979248,-1.61206,0,0,0
18091167382365,-0.177246,0.979248,-1.61206,0,0,0
18091167593587,-0.177246,0.979248,-1.61206,0,0,0
18091167804902,-0.177246,0.979248,-1.61206,0,0,0
18091168025624,-0.177246,0.979248,-1.61206,0,0,0
18091168245624,-0.177246,0.979248,-1.61206,0,0,0
18091168460013,-0.177246,0.979248,-1.61206,0,0,0
18091168668531,-0.177246,0.979248,-1.61206,0,0,0
18091168876772,-0.177246,0.979248,-1.61206,0,0,0
18091169085624,-0.177246,0.979248,-1.61206,0,0,0
18091169294142,-0.177246,0.979248,-1.61206,0,0,0
18091169502457,-0.177246,0.979248,-1.61206,0,0,0
18091169711087,-0.177246,0.979248,-1.61206,0,0,0
18091169919402,0.555176,0.246826,-1.61206,0,0,0
18091170128290,0.555176,0.246826,-1.61206,0,0,0
18091170337142,0.555176,0.246826,-1.61206,0,0,0
18091170546272,0.555176,0.246826,-1.61206,0,0,0
18091170755105,0.555176,0.246826,-1.61206,0,0,0
18091170963494,0.555176,0.246826,-1.61206,0,0,0
18091171173068,0.555176,0.246826,-1.61206,0,0,0
18091171381513,0.555176,0.246826,-1.61206,0,0,0
18091171589957,0.555176,0.246826,-1.61206,0,0,0
18091171798402,0.555176,0.246826,-1.61206,0,0,0
18091172080827,0.555176,0.246826,-1.61206,0,0,0
18091172305031,0.555176,0.246826,-1.61206,0,0,0
18091172516624,0.555176,0.246826,-1.61206,0,0,0
18091172728661,0.555176,0.246826,-1.61206,0.152593,0.183111,0.274667
18091172946550,0.555176,0.246826,-1.61206,0.152593,0.183111,0.274667
18091173158846,0.555176,0.246826,-1.61206,0.152593,0.183111,0.274667
18091173371439,0.555176,0.246826,-1.61206,0.152593,0.183111,0.274667
18091173583994,0.555176,0.246826,-1.61206,0.152593,0.183111,0.274667
18091173796790,0.555176,0.246826,-1.61206,0.152593,0.183111,0.274667
18091174009050,0.555176,0.246826,-1.61206,0.152593,0.183111,0.274667
18091174221309,0.555176,0.246826,-1.61206,0.152593,0.183111,0.274667
18091174433142,0.555176,0.246826,-1.61206,0.152593,0.183111,0.274667
18091174645531,0.555176,0.246826,-1.61206,0.152593,0.183111,0.274667
18091174857753,0.555176,0.246826,-1.61206,0.152593,0.183111,0.274667
18091175069420,0.555176,0.246826,-1.61206,0.152593,0.183111,0.274667
18091175280994,0.555176,0.246826,-1.61206,0.152593,0.183111,0.274667
18091175493013,0.555176,0.246826,-1.61206,0.152593,0.183111,0.274667
18091175705420,0.555176,0.246826,-1.61206,0.152593,0.183111,0.274667
18091175917809,0.555176,0.246826,-1.61206,0.152593,0.183111,0.274667
18091176202809,0.555176,0.246826,-1.61206,0.152593,0.183111,0.274667
18091176425772,0.555176,0.246826,-1.61206,0.152593,0.183111,0.274667
18091176638531,0.555176,0.246826,-1.61206,0.152593,0.183111,0.274667
18091176851457,0.555176,0.246826,-1.61206,0.152593,0.183111,0.274667
18091177063883,0.555176,0.246826,-1.61206,0.152593,0.183111,0.274667
18091177276420,0.555176,0.246826,-1.61206,0.152593,0.183111,0.274667
18091177489513,0.555176,0.246826,-1.61206,0.152593,0.183111,0.274667
18091177701679,0.555176,0.246826,-1.61206,0.152593,0.183111,0.274667
18091177914531,0.555176,0.246826,-1.61206,0.152593,0.183111,0.274667
18091178126513,0.555176,0.246826,-1.61206,0.152593,0.183111,0.274667
18091178338087,0.555176,0.246826,-1.61206,0.152593,0.183111,0.274667
18091178550568,0.555176,0.246826,-1.61206,0.152593,0.183111,0.274667
18091178762457,0.555176,0.246826,-1.61206,0.152593,0.183111,0.274667
18091178975457,0.555176,0.246826,-1.61206,0.152593,0.183111,0.274667
18091179188050,0.555176,0.246826,-1.61206,0.152593,0.183111,0.274667
18091179407457,0.555176,0.246826,-1.61206,0.152593,0.183111,0.274667
18091179619605,0.555176,0.246826,-1.61206,0.152593,0.183111,0.274667
18091179831457,0.555176,5.37378,-3.0769,0.152593,0.183111,0.274667
18091180064920,0.555176,5.37378,-3.0769,0.152593,0.183111,0.274667
18091180287531,0.555176,5.37378,-3.0769,0.152593,0.183111,0.274667
18091180499753,0.555176,5.37378,-3.0769,0.152593,0.183111,0.274667
18091180711957,0.555176,5.37378,-3.0769,0.152593,0.183111,0.274667
18091180924161,0.555176,5.37378,-3.0769,0.152593,0.183111,0.274667
18091181136309,0.555176,5.37378,-3.0769,0.152593,0.183111,0.274667
18091181348531,0.555176,5.37378,-3.0769,0.152593,0.183111,0.274667
18091181560531,0.555176,5.37378,-3.0769,0.152593,0.183111,0.274667
18091181771920,0.555176,5.37378,-3.0769,0.122074,0.488296,0.335704
18091181984827,0.555176,5.37378,-3.0769,0.122074,0.488296,0.335704
18091182197494,0.555176,5.37378,-3.0769,0.122074,0.488296,0.335704
18091182410327,0.555176,5.37378,-3.0769,0.122074,0.488296,0.335704
18091182628716,0.555176,5.37378,-3.0769,0.122074,0.488296,0.335704
18091182841735,0.555176,5.37378,-3.0769,0.122074,0.488296,0.335704
18091183055309,0.555176,5.37378,-3.0769,0.122074,0.488296,0.335704
18091183268457,0.555176,5.37378,-3.0769,0.122074,0.488296,0.335704
18091183481031,0.555176,5.37378,-3.0769,0.122074,0.488296,0.335704
18091183693550,0.555176,5.37378,-3.0769,0.122074,0.488296,0.335704
18091183906087,0.555176,5.37378,-3.0769,0.122074,0.488296,0.335704
18091184119198,0.555176,5.37378,-3.0769,0.122074,0.488296,0.335704
18091184341253,0.555176,5.37378,-3.0769,0.122074,0.488296,0.335704
18091184553976,0.555176,5.37378,-3.0769,0.122074,0.488296,0.335704
18091184766457,0.555176,5.37378,-3.0769,0.122074,0.488296,0.335704
18091184979013,0.555176,5.37378,-3.0769,0.122074,0.488296,0.335704
18091185191976,0.555176,5.37378,-3.0769,0.122074,0.488296,0.335704
18091185404457,0.555176,5.37378,-3.0769,0.122074,0.488296,0.335704
18091185617068,0.555176,5.37378,-3.0769,0,0,0
18091185833976,0.555176,5.37378,-3.0769,0,0,0
18091186045809,0.555176,5.37378,-3.0769,0,0,0
18091186257327,0.555176,5.37378,-3.0769,0,0,0
18091186468735,0.555176,5.37378,-3.0769,0,0,0
18091186680309,0.555176,5.37378,-3.0769,0,0,0
18091186891957,0.555176,5.37378,-3.0769,0,0,0
18091187103327,0.555176,5.37378,-3.0769,0,0,0
18091187315050,0.555176,5.37378,-3.0769,0,0,0
18091187526624,0.555176,5.37378,-3.0769,0,0,0
18091187738476,0.555176,5.37378,-3.0769,0,0,0
18091187950476,0.555176,5.37378,-3.0769,0,0,0
18091188198809,0.555176,5.37378,-3.0769,0,0,0
18091188410550,0.555176,5.37378,-3.0769,0,0,0
18091188621920,0.555176,5.37378,-3.0769,0,0,0
18091188833216,0.555176,5.37378,-3.0769,0,0,0
18091189045309,0.555176,5.37378,-3.0769,0,0,0
18091189257327,0.555176,5.37378,-3.0769,0,0,0
18091189468827,0.555176,5.37378,-3.0769,0,0,0
18091189680568,0.555176,5.37378,-3.0769,0,0,0
18091189892309,1.2876,3.17651,-0.879639,0,0,0
18091190104846,1.2876,3.17651,-0.879639,0,0,0
18091190316309,1.2876,3.17651,-0.879639,0,0,0
18091190527809,1.2876,3.17651,-0.879639,0,0,0
18091190769216,1.2876,3.17651,-0.879639,0,0,0
18091190981939,1.2876,3.17651,-0.879639,0,0,0
18091191193290,1.2876,3.17651,-0.879639,0,0,0
18091191405383,1.2876,3.17651,-0.879639,0,0,0
18091191616716,1.2876,3.17651,-0.879639,0,0,0
18091191827846,1.2876,3.17651,-0.879639,0,0,0
18091192060439,1.2876,3.17651,-0.879639,0,0,0
18091192281476,1.2876,3.17651,-0.879639,0,0,0
18091192493161,1.2876,3.17651,-0.879639,0,0,0
18091192704161,1.2876,3.17651,-0.879639,0.518815,0.518815,0.061037
18091192916624,1.2876,3.17651,-0.879639,0.518815,0.518815,0.061037
18091193129568,1.2876,3.17651,-0.879639,0.518815,0.518815,0.061037
18091193342105,1.2876,3.17651,-0.879639,0.518815,0.518815,0.061037
18091193554142,1.2876,3.17651,-0.879639,0.518815,0.518815,0.061037
18091193766050,1.2876,3.17651,-0.879639,0.518815,0.518815,0.061037
18091193978031,1.2876,3.17651,-0.879639,0.518815,0.518815,0.061037
18091194190550,1.2876,3.17651,-0.879639,0.518815,0.518815,0.061037
18091194403198,1.2876,3.17651,-0.879639,0.518815,0.518815,0.061037
18091194620753,1.2876,3.17651,-0.879639,0.518815,0.518815,0.061037
18091194834161,1.2876,3.17651,-0.879639,0.518815,0.518815,0.061037
18091195046253,1.2876,3.17651,-0.879639,0.518815,0.518815,0.061037
18091195258457,1.2876,3.17651,-0.879639,0.518815,0.518815,0.061037
18091195471105,1.2876,3.17651,-0.879639,0.518815,0.518815,0.061037
18091195683309,1.2876,3.17651,-0.879639,0.518815,0.518815,0.061037
18091195896050,1.2876,3.17651,-0.879639,0.518815,0.518815,0.061037
18091196076087,1.2876,3.17651,-0.879639,0.518815,0.518815,0.061037
18091196298216,1.2876,3.17651,-0.879639,0.518815,0.518815,0.061037
18091196510883,1.2876,3.17651,-0.879639,0.518815,0.518815,0.061037
18091196723994,1.2876,3.17651,-0.879639,0.518815,0.518815,0.061037
18091196936624,1.2876,3.17651,-0.879639,0.518815,0.518815,0.061037
18091197149309,1.2876,3.17651,-0.879639,0.518815,0.518815,0.061037
18091197362105,1.2876,3.17651,-0.879639,0.518815,0.518815,0.061037
18091197575124,1.2876,3.17651,-0.879639,0.518815,0.518815,0.061037
18091197793772,1.2876,3.17651,-0.879639,0.518815,0.518815,0.061037
18091198006920,1.2876,3.17651,-0.879639,0.518815,0.518815,0.061037
18091198219346,1.2876,3.17651,-0.879639,0.518815,0.518815,0.061037
18091198432050,1.2876,3.17651,-0.879639,0.518815,0.518815,0.061037
18091198644809,1.2876,3.17651,-0.879639,0.518815,0.518815,0.061037
18091198858013,1.2876,3.17651,-0.879639,0.518815,0.518815,0.061037
18091199070827,1.2876,3.17651,-0.879639,0.518815,0.518815,0.061037
18091199283809,1.2876,3.17651,-0.879639,0.518815,0.518815,0.061037
18091199497605,1.2876,3.17651,-0.879639,0.518815,0.518815,0.061037
18091199710587,-1.64209,1.71167,-6.00659,0.518815,0.518815,0.061037
18091199923420,-1.64209,1.71167,-6.00659,0.518815,0.518815,0.061037
18091200151790,-1.64209,1.71167,-6.00659,0.518815,0.518815,0.061037
18091200373679,-1.64209,1.71167,-6.00659,0.518815,0.518815,0.061037
18091200586976,-1.64209,1.71167,-6.00659,0.518815,0.518815,0.061037
18091200799290,-1.64209,1.71167,-6.00659,0.518815,0.518815,0.061037
18091201017902,-1.64209,1.71167,-6.00659,0.518815,0.518815,0.061037
18091201231253,-1.64209,1.71167,-6.00659,0.518815,0.518815,0.061037
18091201443161,-1.64209,1.71167,-6.00659,0.518815,0.518815,0.061037
18091201655605,-1.64209,1.71167,-6.00659,0.518815,0.518815,0.061037
18091201867809,-1.64209,1.71167,-6.00659,0.0915555,0.244148,-0.0915555
18091202080513,-1.64209,1.71167,-6.00659,0.0915555,0.244148,-0.0915555
18091202293624,-1.64209,1.71167,-6.00659,0.0915555,0.244148,-0.0915555
18091202506253,-1.64209,1.71167,-6.00659,0.0915555,0.244148,-0.0915555
18091202718957,-1.64209,1.71167,-6.00659,0.0915555,0.244148,-0.0915555
18091202930957,-1.64209,1.71167,-6.00659,0.0915555,0.244148,-0.0915555
18091203143716,-1.64209,1.71167,-6.00659,0.0915555,0.244148,-0.0915555
18091203356513,-1.64209,1.71167,-6.00659,0.0915555,0.244148,-0.0915555
18091203569476,-1.64209,1.71167,-6.00659,0.0915555,0.244148,-0.0915555
18091203782790,-1.64209,1.71167,-6.00659,0.0915555,0.244148,-0.0915555
18091203995124,-1.64209,1.71167,-6.00659,0.0915555,0.244148,-0.0915555
18091204266994,-1.64209,1.71167,-6.00659,0.0915555,0.244148,-0.0915555
18091204481939,-1.64209,1.71167,-6.00659,0.0915555,0.244148,-0.0915555
18091204695402,-1.64209,1.71167,-6.00659,0.0915555,0.244148,-0.0915555
18091204908402,-1.64209,1.71167,-6.00659,0.0915555,0.244148,-0.0915555
18091205121050,-1.64209,1.71167,-6.00659,0.0915555,0.244148,-0.0915555
18091205333383,-1.64209,1.71167,-6.00659,0.0915555,0.244148,-0.0915555
18091205546402,-1.64209,1.71167,-6.00659,0,0,0
18091205757105,-1.64209,1.71167,-6.00659,0,0,0
18091205967679,-1.64209,1.71167,-6.00659,0,0,0
18091206178105,-1.64209,1.71167,-6.00659,0,0,0
18091206388772,-1.64209,1.71167,-6.00659,0,0,0
18091206599309,-1.64209,1.71167,-6.00659,0,0,0
18091206809531,-1.64209,1.71167,-6.00659,0,0,0
18091207019661,-1.64209,1.71167,-6.00659,0,0,0
18091207230753,-1.64209,1.71167,-6.00659,0,0,0
18091207441309,-1.64209,1.71167,-6.00659,0,0,0
18091207651994,-1.64209,1.71167,-6.00659,0,0,0
18091207862994,-1.64209,1.71167,-6.00659,0,0,0
18091208076420,-1.64209,1.71167,-6.00659,0,0,0
18091208301679,-1.64209,1.71167,-6.00659,0,0,0
18091208513457,-1.64209,1.71167,-6.00659,0,0,0
18091208724753,-1.64209,1.71167,-6.00659,0,0,0
18091208935827,-1.64209,1.71167,-6.00659,0,0,0
18091209146679,-1.64209,1.71167,-6.00659,0,0,0
18091209357272,-1.64209,1.71167,-6.00659,0,0,0
18091209568087,-1.64209,1.71167,-6.00659,0,0,0
18091209778809,-1.64209,3.17651,-6.00659,0,0,0
18091209990587,-1.64209,3.17651,-6.00659,0,0,0
18091210201235,-1.64209,3.17651,-6.00659,0,0,0
18091210411753,-1.64209,3.17651,-6.00659,0,0,0
18091210622587,-1.64209,3.17651,-6.00659,0,0,0
18091210833087,-1.64209,3.17651,-6.00659,0,0,0
18091211044994,-1.64209,3.17651,-6.00659,0,0,0
18091211256105,-1.64209,3.17651,-6.00659,0,0,0
18091211466716,-1.64209,3.17651,-6.00659,0,0,0
18091211677142,-1.64209,3.17651,-6.00659,0,0,0
18091211887902,-1.64209,3.17651,-6.00659,0,0,0
18091212102402,-1.64209,3.17651,-6.00659,0,0,0
18091212322013,-1.64209,3.17651,-6.00659,0,0,0
18091212532809,-1.64209,3.17651,-6.00659,0,0,0
18091212748976,-1.64209,3.17651,-6.00659,-0.061037,0.21363,0.0915555
18091212961939,-1.64209,3.17651,-6.00659,-0.061037,0.21363,0.0915555
18091213174605,-1.64209,3.17651,-6.00659,-0.061037,0.21363,0.0915555
18091213387735,-1.64209,3.17651,-6.00659,-0.061037,0.21363,0.0915555
18091213600513,-1.64209,3.17651,-6.00659,-0.061037,0.21363,0.0915555
18091213813735,-1.64209,3.17651,-6.00659,-0.061037,0.21363,0.0915555
18091214026439,-1.64209,3.17651,-6.00659,-0.061037,0.21363,0.0915555
18091214239235,-1.64209,3.17651,-6.00659,-0.061037,0.21363,0.0915555
18091214452827,-1.64209,3.17651,-6.00659,-0.061037,0.21363,0.0915555
18091214665587,-1.64209,3.17651,-6.00659,-0.061037,0.21363,0.0915555
18091214878439,-1.64209,3.17651,-6.00659,-0.061037,0.21363,0.0915555
18091215091272,-1.64209,3.17651,-6.00659,-0.061037,0.21363,0.0915555
18091215304402,-1.64209,3.17651,-6.00659,-0.061037,0.21363,0.0915555
18091215517179,-1.64209,3.17651,-6.00659,-0.061037,0.21363,0.0915555
18091215730494,-1.64209,3.17651,-6.00659,-0.061037,0.21363,0.0915555
18091215951716,-1.64209,3.17651,-6.00659,-0.061037,0.21363,0.0915555
18091216200439,-1.64209,3.17651,-6.00659,-0.061037,0.21363,0.0915555
18091216413161,-1.64209,3.17651,-6.00659,-0.061037,0.21363,0.0915555
18091216626420,-1.64209,3.17651,-6.00659,-0.061037,0.21363,0.0915555
18091216839365,-1.64209,3.17651,-6.00659,-0.061037,0.21363,0.0915555
18091217051790,-1.64209,3.17651,-6.00659,-0.061037,0.21363,0.0915555
18091217264161,-1.64209,3.17651,-6.00659,-0.061037,0.21363,0.0915555
18091217477235,-1.64209,3.17651,-6.00659,-0.061037,0.21363,0.0915555
18091217690476,-1.64209,3.17651,-6.00659,-0.061037,0.21363,0.0915555
18091217903587,-1.64209,3.17651,-6.00659,-0.061037,0.21363,0.0915555
18091218116198,-1.64209,3.17651,-6.00659,-0.061037,0.21363,0.0915555
18091218328920,-1.64209,3.17651,-6.00659,-0.061037,0.21363,0.0915555
18091218541290,-1.64209,3.17651,-6.00659,-0.061037,0.21363,0.0915555
18091218754087,-1.64209,3.17651,-6.00659,-0.061037,0.21363,0.0915555
18091218966846,-1.64209,3.17651,-6.00659,-0.061037,0.21363,0.0915555
18091219210402,-1.64209,3.17651,-6.00659,-0.061037,0.21363,0.0915555
18091219424865,-1.64209,3.17651,-6.00659,-0.061037,0.21363,0.0915555
18091219637531,-2.37451,2.44409,-2.34448,-0.061037,0.21363,0.0915555
18091219850587,-2.37451,2.44409,-2.34448,-0.061037,0.21363,0.0915555
18091220064605,-2.37451,2.44409,-2.34448,-0.061037,0.21363,0.0915555
18091220286365,-2.37451,2.44409,-2.34448,-0.061037,0.21363,0.0915555
18091220499865,-2.37451,2.44409,-2.34448,-0.061037,0.21363,0.0915555
18091220712550,-2.37451,2.44409,-2.34448,-0.061037,0.21363,0.0915555
18091220925198,-2.37451,2.44409,-2.34448,-0.061037,0.21363,0.0915555
18091221138142,-2.37451,2.44409,-2.34448,-0.061037,0.21363,0.0915555
18091221351105,-2.37451,2.44409,-2.34448,-0.061037,0.21363,0.0915555
18091221564031,-2.37451,2.44409,-2.34448,-0.061037,0.21363,0.0915555
18091221777309,-2.37451,2.44409,-2.34448,-0.061037,0.21363,0.0915555
18091221990439,-2.37451,2.44409,-2.34448,0.305185,0.152593,-0.061037
18091222203050,-2.37451,2.44409,-2.34448,0.305185,0.152593,-0.061037
18091222421050,-2.37451,2.44409,-2.34448,0.305185,0.152593,-0.061037
18091222634179,-2.37451,2.44409,-2.34448,0.305185,0.152593,-0.061037
18091222846920,-2.37451,2.44409,-2.34448,0.305185,0.152593,-0.061037
18091223059605,-2.37451,2.44409,-2.34448,0.305185,0.152593,-0.061037
18091223272142,-2.37451,2.44409,-2.34448,0.305185,0.152593,-0.061037
18091223484605,-2.37451,2.44409,-2.34448,0.305185,0.152593,-0.061037
18091223697105,-2.37451,2.44409,-2.34448,0.305185,0.152593,-0.061037
18091223909587,-2.37451,2.44409,-2.34448,0.305185,0.152593,-0.061037
18091224146216,-2.37451,2.44409,-2.34448,0.305185,0.152593,-0.061037
18091224368698,-2.37451,2.44409,-2.34448,0.305185,0.152593,-0.061037
18091224581198,-2.37451,2.44409,-2.34448,0.305185,0.152593,-0.061037
18091224794050,-2.37451,2.44409,-2.34448,0.305185,0.152593,-0.061037
18091225006309,-2.37451,2.44409,-2.34448,0.305185,0.152593,-0.061037
18091225219327,-2.37451,2.44409,-2.34448,0.305185,0.152593,-0.061037
18091225431568,-2.37451,2.44409,-2.34448,0.305185,0.152593,-0.061037
18091225649531,-2.37451,2.44409,-2.34448,0,0,0
18091225861161,-2.37451,2.44409,-2.34448,0,0,0
18091226072031,-2.37451,2.44409,-2.34448,0,0,0
18091226282327,-2.37451,2.44409,-2.34448,0,0,0
18091226492531,-2.37451,2.44409,-2.34448,0,0,0
18091226702865,-2.37451,2.44409,-2.34448,0,0,0
18091226912772,-2.37451,2.44409,-2.34448,0,0,0
18091227123216,-2.37451,2.44409,-2.34448,0,0,0
18091227333698,-2.37451,2.44409,-2.34448,0,0,0
18091227543939,-2.37451,2.44409,-2.34448,0,0,0
18091227754087,-2.37451,2.44409,-2.34448,0,0,0
18091227964087,-2.37451,2.44409,-2.34448,0,0,0
18091228207920,-2.37451,2.44409,-2.34448,0,0,0
18091228419179,-2.37451,2.44409,-2.34448,0,0,0
18091228629105,-2.37451,2.44409,-2.34448,0,0,0
18091228838957,-2.37451,2.44409,-2.34448,0,0,0
18091229049346,-2.37451,2.44409,-2.34448,0,0,0
18091229260216,-2.37451,2.44409,-2.34448,0,0,0
18091229470642,-2.37451,2.44409,-2.34448,0,0,0
18091229680902,-2.37451,1.71167,-2.34448,0,0,0
18091229892124,-2.37451,1.71167,-2.34448,0,0,0
18091230109883,-2.37451,1.71167,-2.34448,0,0,0
18091230321346,-2.37451,1.71167,-2.34448,0,0,0
18091230531735,-2.37451,1.71167,-2.34448,0,0,0
18091230742605,-2.37451,1.71167,-2.34448,0,0,0
18091230953642,-2.37451,1.71167,-2.34448,0,0,0
18091231164216,-2.37451,1.71167,-2.34448,0,0,0
18091231375327,-2.37451,1.71167,-2.34448,0,0,0
18091231585976,-2.37451,1.71167,-2.34448,0,0,0
18091231796550,-2.37451,1.71167,-2.34448,0,0,0
18091232021827,-2.37451,1.71167,-2.34448,0,0,0
18091232244327,-2.37451,1.71167,-2.34448,0,0,0
18091232456124,-2.37451,1.71167,-2.34448,0,0,0
18091232666661,-2.37451,1.71167,-2.34448,0.061037,0.183111,-0.0305185
18091232879920,-2.37451,1.71167,-2.34448,0.061037,0.183111,-0.0305185
18091233093179,-2.37451,1.71167,-2.34448,0.061037,0.183111,-0.0305185
18091233306235,-2.37451,1.71167,-2.34448,0.061037,0.183111,-0.0305185
18091233519327,-2.37451,1.71167,-2.34448,0.061037,0.183111,-0.0305185
18091233732476,-2.37451,1.71167,-2.34448,0.061037,0.183111,-0.0305185
18091233945124,-2.37451,1.71167,-2.34448,0.061037,0.183111,-0.0305185
18091234187994,-2.37451,1.71167,-2.34448,0.061037,0.183111,-0.0305185
18091234401531,-2.37451,1.71167,-2.34448,0.061037,0.183111,-0.0305185
18091234614735,-2.37451,1.71167,-2.34448,0.061037,0.183111,-0.0305185
18091234826864,-2.37451,1.71167,-2.34448,0.061037,0.183111,-0.0305185
18091235039142,-2.37451,1.71167,-2.34448,0.061037,0.183111,-0.0305185
18091235251827,-2.37451,1.71167,-2.34448,0.061037,0.183111,-0.0305185
18091235464087,-2.37451,1.71167,-2.34448,0.061037,0.183111,-0.0305185
18091235676827,-2.37451,1.71167,-2.34448,0.061037,0.183111,-0.0305185
18091235889161,-2.37451,1.71167,-2.34448,0.061037,0.183111,-0.0305185
18091236104827,-2.37451,1.71167,-2.34448,0.061037,0.183111,-0.0305185
18091236326105,-2.37451,1.71167,-2.34448,0.061037,0.183111,-0.0305185
18091236538716,-2.37451,1.71167,-2.34448,0.061037,0.183111,-0.0305185
18091236751198,-2.37451,1.71167,-2.34448,0.061037,0.183111,-0.0305185
18091236963661,-2.37451,1.71167,-2.34448,0.061037,0.183111,-0.0305185
18091237181587,-2.37451,1.71167,-2.34448,0.061037,0.183111,-0.0305185
18091237394402,-2.37451,1.71167,-2.34448,0.061037,0.183111,-0.0305185
18091237607642,-2.37451,1.71167,-2.34448,0.061037,0.183111,-0.0305185
18091237820939,-2.37451,1.71167,-2.34448,0.061037,0.183111,-0.0305185
18091238032698,-2.37451,1.71167,-2.34448,0.061037,0.183111,-0.0305185
18091238245624,-2.37451,1.71167,-2.34448,0.061037,0.183111,-0.0305185
18091238457994,-2.37451,1.71167,-2.34448,0.061037,0.183111,-0.0305185
18091238671013,-2.37451,1.71167,-2.34448,0.061037,0.183111,-0.0305185
18091238883161,-2.37451,1.71167,-2.34448,0.061037,0.183111,-0.0305185
18091239095661,-2.37451,1.71167,-2.34448,0.061037,0.183111,-0.0305185
18091239307994,-2.37451,1.71167,-2.34448,0.061037,0.183111,-0.0305185
18091239520513,-0.177246,0.979248,-4.54175,0.061037,0.183111,-0.0305185
18091239734327,-0.177246,0.979248,-4.54175,0.061037,0.183111,-0.0305185
18091239947457,-0.177246,0.979248,-4.54175,0.061037,0.183111,-0.0305185
18091240197531,-0.177246,0.979248,-4.54175,0.061037,0.183111,-0.0305185
18091240417272,-0.177246,0.979248,-4.54175,0.061037,0.183111,-0.0305185
18091240631050,-0.177246,0.979248,-4.54175,0.061037,0.183111,-0.0305185
18091240844161,-0.177246,0.979248,-4.54175,0.061037,0.183111,-0.0305185
18091241057346,-0.177246,0.979248,-4.54175,0.061037,0.183111,-0.0305185
18091241269753,-0.177246,0.979248,-4.54175,0.061037,0.183111,-0.0305185
18091241483383,-0.177246,0.979248,-4.54175,0.061037,0.183111,-0.0305185
18091241697087,-0.177246,0.979248,-4.54175,0.061037,0.183111,-0.0305185
18091241910846,-0.177246,0.979248,-4.54175,0.122074,-0.061037,-0.122074
18091242123735,-0.177246,0.979248,-4.54175,0.122074,-0.061037,-0.122074
18091242337364,-0.177246,0.979248,-4.54175,0.122074,-0.061037,-0.122074
18091242550864,-0.177246,0.979248,-4.54175,0.122074,-0.061037,-0.122074
18091242764513,-0.177246,0.979248,-4.54175,0.122074,-0.061037,-0.122074
18091242977864,-0.177246,0.979248,-4.54175,0.122074,-0.061037,-0.122074
18091243191420,-0.177246,0.979248,-4.54175,0.122074,-0.061037,-0.122074
18091243410994,-0.177246,0.979248,-4.54175,0.122074,-0.061037,-0.122074
18091243624864,-0.177246,0.979248,-4.54175,0.122074,-0.061037,-0.122074
18091243838661,-0.177246,0.979248,-4.54175,0.122074,-0.061037,-0.122074
18091244054994,-0.177246,0.979248,-4.54175,0.122074,-0.061037,-0.122074
18091244276790,-0.177246,0.979248,-4.54175,0.122074,-0.061037,-0.122074
18091244490179,-0.177246,0.979248,-4.54175,0.122074,-0.061037,-0.122074
18091244703161,-0.177246,0.979248,-4.54175,0.122074,-0.061037,-0.122074
18091244916698,-0.177246,0.979248,-4.54175,0.122074,-0.061037,-0.122074
18091245129902,-0.177246,0.979248,-4.54175,0.122074,-0.061037,-0.122074
18091245343124,-0.177246,0.979248,-4.54175,0.122074,-0.061037,-0.122074
18091245556624,-0.177246,0.979248,-4.54175,0,0,0
18091245769179,-0.177246,0.979248,-4.54175,0,0,0
18091245981439,-0.177246,0.979248,-4.54175,0,0,0
18091246193513,-0.177246,0.979248,-4.54175,0,0,0
18091246405420,-0.177246,0.979248,-4.54175,0,0,0
18091246617068,-0.177246,0.979248,-4.54175,0,0,0
18091246859050,-0.177246,0.979248,-4.54175,0,0,0
18091247072439,-0.177246,0.979248,-4.54175,0,0,0
18091247284272,-0.177246,0.979248,-4.54175,0,0,0
18091247495846,-0.177246,0.979248,-4.54175,0,0,0
18091247707605,-0.177246,0.979248,-4.54175,0,0,0
18091247919346,-0.177246,0.979248,-4.54175,0,0,0
18091248155364,-0.177246,0.979248,-4.54175,0,0,0
18091248376735,-0.177246,0.979248,-4.54175,0,0,0
18091248588661,-0.177246,0.979248,-4.54175,0,0,0
18091248800920,-0.177246,0.979248,-4.54175,0,0,0
18091249013327,-0.177246,0.979248,-4.54175,0,0,0
18091249224679,-0.177246,0.979248,-4.54175,0,0,0
18091249436513,-0.177246,0.246826,-1.61206,0,0,0
18091249646976,-0.177246,0.246826,-1.61206,0,0,0
18091249858772,-0.177246,0.246826,-1.61206,0,0,0
18091250070976,-0.177246,0.246826,-1.61206,0,0,0
18091250282290,-0.177246,0.246826,-1.61206,0,0,0
18091250493568,-0.177246,0.246826,-1.61206,0,0,0
18091250704716,-0.177246,0.246826,-1.61206,0,0,0
18091250916661,-0.177246,0.246826,-1.61206,0,0,0
18091251128013,-0.177246,0.246826,-1.61206,0,0,0
18091251345087,-0.177246,0.246826,-1.61206,0,0,0
18091251557087,-0.177246,0.246826,-1.61206,0,0,0
18091251769753,-0.177246,0.246826,-1.61206,0,0,0
18091251980902,-0.177246,0.246826,-1.61206,0,0,0
18091252208920,-0.177246,0.246826,-1.61206,0,0,0
18091252421161,-0.177246,0.246826,-1.61206,0,0,0
18091252633272,-0.177246,0.246826,-1.61206,0.0915555,-0.0305185,-0.244148
18091252846402,-0.177246,0.246826,-1.61206,0.0915555,-0.0305185,-0.244148
18091253059383,-0.177246,0.246826,-1.61206,0.0915555,-0.0305185,-0.244148
18091253272161,-0.177246,0.246826,-1.61206,0.0915555,-0.0305185,-0.244148
18091253484735,-0.177246,0.246826,-1.61206,0.0915555,-0.0305185,-0.244148
18091253697550,-0.177246,0.246826,-1.61206,0.0915555,-0.0305185,-0.244148
18091253910550,-0.177246,0.246826,-1.61206,0.0915555,-0.0305185,-0.244148
18091254123235,-0.177246,0.246826,-1.61206,0.0915555,-0.0305185,-0.244148
18091254336290,-0.177246,0.246826,-1.61206,0.0915555,-0.0305185,-0.244148
18091254548550,-0.177246,0.246826,-1.61206,0.0915555,-0.0305185,-0.244148
18091254767124,-0.177246,0.246826,-1.61206,0.0915555,-0.0305185,-0.244148
18091254980216,-0.177246,0.246826,-1.61206,0.0915555,-0.0305185,-0.244148
18091255193068,-0.177246,0.246826,-1.61206,0.0915555,-0.0305185,-0.244148
18091255405939,-0.177246,0.246826,-1.61206,0.0915555,-0.0305185,-0.244148
18091255618679,-0.177246,0.246826,-1.61206,0.0915555,-0.0305185,-0.244148
18091255832124,-0.177246,0.246826,-1.61206,0.0915555,-0.0305185,-0.244148
18091256066050,-0.177246,0.246826,-1.61206,0.0915555,-0.0305185,-0.244148
18091256289439,-0.177246,0.246826,-1.61206,0.0915555,-0.0305185,-0.244148
18091256502439,-0.177246,0.246826,-1.61206,0.0915555,-0.0305185,-0.244148
18091256714716,-0.177246,0.246826,-1.61206,0.0915555,-0.0305185,-0.244148
18091256927420,-0.177246,0.246826,-1.61206,0.0915555,-0.0305185,-0.244148
18091257140827,-0.177246,0.246826,-1.61206,0.0915555,-0.0305185,-0.244148
18091257353642,-0.177246,0.246826,-1.61206,0.0915555,-0.0305185,-0.244148
18091257567124,-0.177246,0.246826,-1.61206,0.0915555,-0.0305185,-0.244148
18091257785624,-0.177246,0.246826,-1.61206,0.0915555,-0.0305185,-0.244148
18091257998216,-0.177246,0.246826,-1.61206,0.0915555,-0.0305185,-0.244148
18091258211235,-0.177246,0.246826,-1.61206,0.0915555,-0.0305185,-0.244148
18091258423883,-0.177246,0.246826,-1.61206,0.0915555,-0.0305185,-0.244148
18091258636402,-0.177246,0.246826,-1.61206,0.0915555,-0.0305185,-0.244148
18091258848402,-0.177246,0.246826,-1.61206,0.0915555,-0.0305185,-0.244148
18091259060957,-0.177246,0.246826,-1.61206,0.0915555,-0.0305185,-0.244148
18091259274290,-0.177246,0.246826,-1.61206,0.0915555,-0.0305185,-0.244148
18091259487457,-0.909668,0.246826,-1.61206,0.0915555,-0.0305185,-0.244148
18091259700457,-0.909668,0.246826,-1.61206,0.0915555,-0.0305185,-0.244148
18091259912976,-0.909668,0.246826,-1.61206,0.0915555,-0.0305185,-0.244148
18091260150642,-0.909668,0.246826,-1.61206,0.0915555,-0.0305185,-0.244148
18091260373309,-0.909668,0.246826,-1.61206,0.0915555,-0.0305185,-0.244148
18091260586013,-0.909668,0.246826,-1.61206,0.0915555,-0.0305185,-0.244148
18091260830142,-0.909668,0.246826,-1.61206,0.0915555,-0.0305185,-0.244148
18091261044198,-0.909668,0.246826,-1.61206,0.0915555,-0.0305185,-0.244148
18091261257827,-0.909668,0.246826,-1.61206,0.0915555,-0.0305185,-0.244148
18091261470957,-0.909668,0.246826,-1.61206,0.0915555,-0.0305185,-0.244148
18091261684587,-0.909668,0.246826,-1.61206,0.0915555,-0.0305185,-0.244148
18091261897587,-0.909668,0.246826,-1.61206,0.061037,-0.0915555,0.183111
18091262110864,-0.909668,0.246826,-1.61206,0.061037,-0.0915555,0.183111
18091262324494,-0.909668,0.246826,-1.61206,0.061037,-0.0915555,0.183111
18091262537587,-0.909668,0.246826,-1.61206,0.061037,-0.0915555,0.183111
18091262751290,-0.909668,0.246826,-1.61206,0.061037,-0.0915555,0.183111
18091262964716,-0.909668,0.246826,-1.61206,0.061037,-0.0915555,0.183111
18091263178420,-0.909668,0.246826,-1.61206,0.061037,-0.0915555,0.183111
18091263391846,-0.909668,0.246826,-1.61206,0.061037,-0.0915555,0.183111
18091263604624,-0.909668,0.246826,-1.61206,0.061037,-0.0915555,0.183111
18091263823290,-0.909668,0.246826,-1.61206,0.061037,-0.0915555,0.183111
18091264058735,-0.909668,0.246826,-1.61206,0.061037,-0.0915555,0.183111
18091264282253,-0.909668,0.246826,-1.61206,0.061037,-0.0915555,0.183111
18091264497031,-0.909668,0.246826,-1.61206,0.061037,-0.0915555,0.183111
18091264710531,-0.909668,0.246826,-1.61206,0.061037,-0.0915555,0.183111
18091264924031,-0.909668,0.246826,-1.61206,0.061037,-0.0915555,0.183111
18091265137364,-0.909668,0.246826,-1.61206,0.061037,-0.0915555,0.183111
18091265350198,-0.909668,0.246826,-1.61206,0.061037,-0.0915555,0.183111
18091265564327,-0.909668,0.246826,-1.61206,0,0,0
18091265775846,-0.909668,0.246826,-1.61206,0,0,0
18091265987939,-0.909668,0.246826,-1.61206,0,0,0
18091266200105,-0.909668,0.246826,-1.61206,0,0,0
18091266411698,-0.909668,0.246826,-1.61206,0,0,0
18091266623883,-0.909668,0.246826,-1.61206,0,0,0
18091266835902,-0.909668,0.246826,-1.61206,0,0,0
18091267047790,-0.909668,0.246826,-1.61206,0,0,0
18091267259402,-0.909668,0.246826,-1.61206,0,0,0
18091267476753,-0.909668,0.246826,-1.61206,0,0,0
18091267690142,-0.909668,0.246826,-1.61206,0,0,0
18091267902642,-0.909668,0.246826,-1.61206,0,0,0
18091268078031,-0.909668,0.246826,-1.61206,0,0,0
18091268299809,-0.909668,0.246826,-1.61206,0,0,0
18091268511661,-0.909668,0.246826,-1.61206,0,0,0
18091268723827,-0.909668,0.246826,-1.61206,0,0,0
18091268935864,-0.909668,0.246826,-1.61206,0,0,0
18091269147976,-0.909668,0.246826,-1.61206,0,0,0
18091269359957,-1.64209,2.44409,-0.147217,0,0,0
18091269571698,-1.64209,2.44409,-0.147217,0,0,0
18091269783716,-1.64209,2.44409,-0.147217,0,0,0
18091269995272,-1.64209,2.44409,-0.147217,0,0,0
18091270207031,-1.64209,2.44409,-0.147217,0,0,0
18091270418402,-1.64209,2.44409,-0.147217,0,0,0
18091270630698,-1.64209,2.44409,-0.147217,0,0,0
18091270843087,-1.64209,2.44409,-0.147217,0,0,0
18091271054605,-1.64209,2.44409,-0.147217,0,0,0
18091271266087,-1.64209,2.44409,-0.147217,0,0,0
18091271477753,-1.64209,2.44409,-0.147217,0,0,0
18091271689364,-1.64209,2.44409,-0.147217,0,0,0
18091271907272,-1.64209,2.44409,-0.147217,0,0,0
18091272119198,-1.64209,2.44409,-0.147217,0,0,0
18091272340939,-1.64209,2.44409,-0.147217,0,0,0
18091272553031,-1.64209,2.44409,-0.147217,0,0,0
18091272765179,-1.64209,2.44409,-0.147217,0.21363,0.366222,0.335704
18091272976939,-1.64209,2.44409,-0.147217,0.21363,0.366222,0.335704
18091273189494,-1.64209,2.44409,-0.147217,0.21363,0.366222,0.335704
18091273401846,-1.64209,2.44409,-0.147217,0.21363,0.366222,0.335704
18091273613568,-1.64209,2.44409,-0.147217,0.21363,0.366222,0.335704
18091273825624,-1.64209,2.44409,-0.147217,0.21363,0.366222,0.335704
18091274038142,-1.64209,2.44409,-0.147217,0.21363,0.366222,0.335704
18091274250216,-1.64209,2.44409,-0.147217,0.21363,0.366222,0.335704
18091274462290,-1.64209,2.44409,-0.147217,0.21363,0.366222,0.335704
18091274675013,-1.64209,2.44409,-0.147217,0.21363,0.366222,0.335704
18091274887772,-1.64209,2.44409,-0.147217,0.21363,0.366222,0.335704
18091275100309,-1.64209,2.44409,-0.147217,0.21363,0.366222,0.335704
18091275342531,-1.64209,2.44409,-0.147217,0.21363,0.366222,0.335704
18091275556476,-1.64209,2.44409,-0.147217,0.21363,0.366222,0.335704
18091275769883,-1.64209,2.44409,-0.147217,0.21363,0.366222,0.335704
18091275982698,-1.64209,2.44409,-0.147217,0.21363,0.366222,0.335704
18091276212346,-1.64209,2.44409,-0.147217,0.21363,0.366222,0.335704
18091276424864,-1.64209,2.44409,-0.147217,0.21363,0.366222,0.335704
18091276637013,-1.64209,2.44409,-0.147217,0.21363,0.366222,0.335704
18091276849272,-1.64209,2.44409,-0.147217,0.21363,0.366222,0.335704
18091277061957,-1.64209,2.44409,-0.147217,0.21363,0.366222,0.335704
18091277274457,-1.64209,2.44409,-0.147217,0.21363,0.366222,0.335704
18091277486402,-1.64209,2.44409,-0.147217,0.21363,0.366222,0.335704
18091277699031,-1.64209,2.44409,-0.147217,0.21363,0.366222,0.335704
18091277911753,-1.64209,2.44409,-0.147217,0.21363,0.366222,0.335704
18091278123716,-1.64209,2.44409,-0.147217,0.21363,0.366222,0.335704
18091278335957,-1.64209,2.44409,-0.147217,0.21363,0.366222,0.335704
18091278553883,-1.64209,2.44409,-0.147217,0.21363,0.366222,0.335704
18091278766605,-1.64209,2.44409,-0.147217,0.21363,0.366222,0.335704
18091278978957,-1.64209,2.44409,-0.147217,0.21363,0.366222,0.335704
18091279191290,-1.64209,0.979248,-4.54175,0.21363,0.366222,0.335704
18091279403883,-1.64209,0.979248,-4.54175,0.21363,0.366222,0.335704
18091279616624,-1.64209,0.979248,-4.54175,0.21363,0.366222,0.335704
18091279828883,-1.64209,0.979248,-4.54175,0.21363,0.366222,0.335704
18091280062513,-1.64209,0.979248,-4.54175,0.21363,0.366222,0.335704
18091280285087,-1.64209,0.979248,-4.54175,0.21363,0.366222,0.335704
18091280497846,-1.64209,0.979248,-4.54175,0.21363,0.366222,0.335704
18091280710698,-1.64209,0.979248,-4.54175,0.21363,0.366222,0.335704
18091280923253,-1.64209,0.979248,-4.54175,0.21363,0.366222,0.335704
18091281135346,-1.64209,0.979248,-4.54175,0.21363,0.366222,0.335704
18091281347642,-1.64209,0.979248,-4.54175,0.21363,0.366222,0.335704
18091281560698,-1.64209,0.979248,-4.54175,0.21363,0.366222,0.335704
18091281778253,-1.64209,0.979248,-4.54175,0.21363,0.366222,0.335704
18091281991364,-1.64209,0.979248,-4.54175,0.274667,0.488296,0.152593
18091282203846,-1.64209,0.979248,-4.54175,0.274667,0.488296,0.152593
18091282416272,-1.64209,0.979248,-4.54175,0.274667,0.488296,0.152593
18091282628568,-1.64209,0.979248,-4.54175,0.274667,0.488296,0.152593
18091282840605,-1.64209,0.979248,-4.54175,0.274667,0.488296,0.152593
18091283052902,-1.64209,0.979248,-4.54175,0.274667,0.488296,0.152593
18091283265346,-1.64209,0.979248,-4.54175,0.274667,0.488296,0.152593
18091283477902,-1.64209,0.979248,-4.54175,0.274667,0.488296,0.152593
18091283690642,-1.64209,0.979248,-4.54175,0.274667,0.488296,0.152593
18091283902976,-1.64209,0.979248,-4.54175,0.274667,0.488296,0.152593
18091284077235,-1.64209,0.979248,-4.54175,0.274667,0.488296,0.152593
18091284299142,-1.64209,0.979248,-4.54175,0.274667,0.488296,0.152593
18091284511216,-1.64209,0.979248,-4.54175,0.274667,0.488296,0.152593
18091284724327,-1.64209,0.979248,-4.54175,0.274667,0.488296,0.152593
18091284943309,-1.64209,0.979248,-4.54175,0.274667,0.488296,0.152593
18091285156402,-1.64209,0.979248,-4.54175,0.274667,0.488296,0.152593
18091285368568,-1.64209,0.979248,-4.54175,0.274667,0.488296,0.152593
18091285580994,-1.64209,0.979248,-4.54175,0,0,0
18091285792883,-1.64209,0.979248,-4.54175,0,0,0
18091286005309,-1.64209,0.979248,-4.54175,0,0,0
18091286217772,-1.64209,0.979248,-4.54175,0,0,0
18091286429605,-1.64209,0.979248,-4.54175,0,0,0
18091286641457,-1.64209,0.979248,-4.54175,0,0,0
18091286852772,-1.64209,0.979248,-4.54175,0,0,0
18091287064290,-1.64209,0.979248,-4.54175,0,0,0
18091287276253,-1.64209,0.979248,-4.54175,0,0,0
18091287487976,-1.64209,0.979248,-4.54175,0,0,0
18091287699753,-1.64209,0.979248,-4.54175,0,0,0
18091287911902,-1.64209,0.979248,-4.54175,0,0,0
18091288140735,-1.64209,0.979248,-4.54175,0,0,0
18091288362346,-1.64209,0.979248,-4.54175,0,0,0
18091288574272,-1.64209,0.979248,-4.54175,0,0,0
18091288785790,-1.64209,0.979248,-4.54175,0,0,0
18091288997716,-1.64209,0.979248,-4.54175,0,0,0
18091289245513,-1.64209,3.17651,-3.80933,0,0,0
18091289457531,-1.64209,3.17651,-3.80933,0,0,0
18091289668476,-1.64209,3.17651,-3.80933,0,0,0
18091289879161,-1.64209,3.17651,-3.80933,0,0,0
18091290089679,-1.64209,3.17651,-3.80933,0,0,0
18091290300420,-1.64209,3.17651,-3.80933,0,0,0
18091290511272,-1.64209,3.17651,-3.80933,0,0,0
18091290722457,-1.64209,3.17651,-3.80933,0,0,0
18091290932142,-1.64209,3.17651,-3.80933,0,0,0
18091291142309,-1.64209,3.17651,-3.80933,0,0,0
18091291352679,-1.64209,3.17651,-3.80933,0,0,0
18091291563346,-1.64209,3.17651,-3.80933,0,0,0
18091291774531,-1.64209,3.17651,-3.80933,0,0,0
18091291984864,-1.64209,3.17651,-3.80933,0,0,0
18091292209605,-1.64209,3.17651,-3.80933,0,0,0
18091292421050,-1.64209,3.17651,-3.80933,0,0,0
18091292631846,-1.64209,3.17651,-3.80933,0.274667,0.61037,0.152593
18091292844605,-1.64209,3.17651,-3.80933,0.274667,0.61037,0.152593
18091293056420,-1.64209,3.17651,-3.80933,0.274667,0.61037,0.152593
18091293268568,-1.64209,3.17651,-3.80933,0.274667,0.61037,0.152593
18091293487624,-1.64209,3.17651,-3.80933,0.274667,0.61037,0.152593
18091293699772,-1.64209,3.17651,-3.80933,0.274667,0.61037,0.152593
18091293912550,-1.64209,3.17651,-3.80933,0.274667,0.61037,0.152593
18091294123735,-1.64209,3.17651,-3.80933,0.274667,0.61037,0.152593
18091294335439,-1.64209,3.17651,-3.80933,0.274667,0.61037,0.152593
18091294547161,-1.64209,3.17651,-3.80933,0.274667,0.61037,0.152593
18091294758124,-1.64209,3.17651,-3.80933,0.274667,0.61037,0.152593
18091294969457,-1.64209,3.17651,-3.80933,0.274667,0.61037,0.152593
18091295181587,-1.64209,3.17651,-3.80933,0.274667,0.61037,0.152593
18091295393068,-1.64209,3.17651,-3.80933,0.274667,0.61037,0.152593
18091295604901,-1.64209,3.17651,-3.80933,0.274667,0.61037,0.152593
18091295816568,-1.64209,3.17651,-3.80933,0.274667,0.61037,0.152593
18091296048976,-1.64209,3.17651,-3.80933,0.274667,0.61037,0.152593
18091296271235,-1.64209,3.17651,-3.80933,0.274667,0.61037,0.152593
18091296483087,-1.64209,3.17651,-3.80933,0.274667,0.61037,0.152593
18091296694753,-1.64209,3.17651,-3.80933,0.274667,0.61037,0.152593
18091296912050,-1.64209,3.17651,-3.80933,0.274667,0.61037,0.152593
18091297124494,-1.64209,3.17651,-3.80933,0.274667,0.61037,0.152593
18091297336624,-1.64209,3.17651,-3.80933,0.274667,0.61037,0.152593
18091297547976,-1.64209,3.17651,-3.80933,0.274667,0.61037,0.152593
18091297759809,-1.64209,3.17651,-3.80933,0.274667,0.61037,0.152593
18091297971476,-1.64209,3.17651,-3.80933,0.274667,0.61037,0.152593
18091298183235,-1.64209,3.17651,-3.80933,0.274667,0.61037,0.152593
18091298394661,-1.64209,3.17651,-3.80933,0.274667,0.61037,0.152593
18091298606679,-1.64209,3.17651,-3.80933,0.274667,0.61037,0.152593
18091298818494,-1.64209,3.17651,-3.80933,0.274667,0.61037,0.152593
18091299030476,-1.64209,3.17651,-3.80933,0.274667,0.61037,0.152593
18091299242235,-0.909668,2.44409,-3.80933,0.274667,0.61037,0.152593
18091299453753,-0.909668,2.44409,-3.80933,0.274667,0.61037,0.152593
18091299666253,-0.909668,2.44409,-3.80933,0.274667,0.61037,0.152593
18091299878827,-0.909668,2.44409,-3.80933,0.274667,0.61037,0.152593
18091300099142,-0.909668,2.44409,-3.80933,0.274667,0.61037,0.152593
18091300319624,-0.909668,2.44409,-3.80933,0.274667,0.61037,0.152593
18091300532013,-0.909668,2.44409,-3.80933,0.274667,0.61037,0.152593
18091300743901,-0.909668,2.44409,-3.80933,0.274667,0.61037,0.152593
18091300956624,-0.909668,2.44409,-3.80933,0.274667,0.61037,0.152593
18091301169050,-0.909668,2.44409,-3.80933,0.274667,0.61037,0.152593
18091301381476,-0.909668,2.44409,-3.80933,0.274667,0.61037,0.152593
18091301594550,-0.909668,2.44409,-3.80933,0.274667,0.61037,0.152593
18091301806253,-0.909668,2.44409,-3.80933,0.274667,0.61037,0.152593
18091302018550,-0.909668,2.44409,-3.80933,0.152593,0.457778,0.152593
18091302230994,-0.909668,2.44409,-3.80933,0.152593,0.457778,0.152593
18091302442605,-0.909668,2.44409,-3.80933,0.152593,0.457778,0.152593
18091302654753,-0.909668,2.44409,-3.80933,0.152593,0.457778,0.152593
18091302866587,-0.909668,2.44409,-3.80933,0.152593,0.457778,0.152593
18091303078309,-0.909668,2.44409,-3.80933,0.152593,0.457778,0.152593
18091303321290,-0.909668,2.44409,-3.80933,0.152593,0.457778,0.152593
18091303534142,-0.909668,2.44409,-3.80933,0.152593,0.457778,0.152593
18091303745753,-0.909668,2.44409,-3.80933,0.152593,0.457778,0.152593
18091303957327,-0.909668,2.44409,-3.80933,0.152593,0.457778,0.152593
18091304204327,-0.909668,2.44409,-3.80933,0.152593,0.457778,0.152593
18091304416531,-0.909668,2.44409,-3.80933,0.152593,0.457778,0.152593
18091304628661,-0.909668,2.44409,-3.80933,0.152593,0.457778,0.152593
18091304840939,-0.909668,2.44409,-3.80933,0.152593,0.457778,0.152593
18091305052605,-0.909668,2.44409,-3.80933,0.152593,0.457778,0.152593
18091305264531,-0.909668,2.44409,-3.80933,0.152593,0.457778,0.152593
18091305475698,-0.909668,2.44409,-3.80933,0,0,0
18091305687050,-0.909668,2.44409,-3.80933,0,0,0
18091305898976,-0.909668,2.44409,-3.80933,0,0,0
18091306110105,-0.909668,2.44409,-3.80933,0,0,0
18091306321605,-0.909668,2.44409,-3.80933,0,0,0
18091306532550,-0.909668,2.44409,-3.80933,0,0,0
18091306744401,-0.909668,2.44409,-3.80933,0,0,0
18091306961198,-0.909668,2.44409,-3.80933,0,0,0
18091307173327,-0.909668,2.44409,-3.80933,0,0,0
18091307384494,-0.909668,2.44409,-3.80933,0,0,0
18091307595624,-0.909668,2.44409,-3.80933,0,0,0
18091307807087,-0.909668,2.44409,-3.80933,0,0,0
18091308024679,-0.909668,2.44409,-3.80933,0,0,0
18091308246327,-0.909668,2.44409,-3.80933,0,0,0
18091308458605,-0.909668,2.44409,-3.80933,0,0,0
18091308669753,-0.909668,2.44409,-3.80933,0,0,0
18091308881457,-0.909668,2.44409,-3.80933,0,0,0
18091309092957,-2.37451,4.64136,-4.54175,0,0,0
18091309302957,-2.37451,4.64136,-4.54175,0,0,0
18091309513309,-2.37451,4.64136,-4.54175,0,0,0
18091309723179,-2.37451,4.64136,-4.54175,0,0,0
18091309934216,-2.37451,4.64136,-4.54175,0,0,0
18091310144216,-2.37451,4.64136,-4.54175,0,0,0
18091310354679,-2.37451,4.64136,-4.54175,0,0,0
18091310565476,-2.37451,4.64136,-4.54175,0,0,0
18091310775216,-2.37451,4.64136,-4.54175,0,0,0
18091310985809,-2.37451,4.64136,-4.54175,0,0,0
18091311195976,-2.37451,4.64136,-4.54175,0,0,0
18091311412346,-2.37451,4.64136,-4.54175,0,0,0
18091311623735,-2.37451,4.64136,-4.54175,0,0,0
18091311834050,-2.37451,4.64136,-4.54175,0,0,0
18091312066198,-2.37451,4.64136,-4.54175,0,0,0
18091312286809,-2.37451,4.64136,-4.54175,0,0,0
18091312497976,-2.37451,4.64136,-4.54175,0,0,0
18091312708420,-2.37451,4.64136,-4.54175,0.274667,0.061037,-0.0305185
18091312920235,-2.37451,4.64136,-4.54175,0.274667,0.061037,-0.0305185
18091313133179,-2.37451,4.64136,-4.54175,0.274667,0.061037,-0.0305185
18091313345476,-2.37451,4.64136,-4.54175,0.274667,0.061037,-0.0305185
18091313557864,-2.37451,4.64136,-4.54175,0.274667,0.061037,-0.0305185
18091313770346,-2.37451,4.64136,-4.54175,0.274667,0.061037,-0.0305185
18091313983290,-2.37451,4.64136,-4.54175,0.274667,0.061037,-0.0305185
18091314196550,-2.37451,4.64136,-4.54175,0.274667,0.061037,-0.0305185
18091314409327,-2.37451,4.64136,-4.54175,0.274667,0.061037,-0.0305185
18091314622476,-2.37451,4.64136,-4.54175,0.274667,0.061037,-0.0305185
18091314835179,-2.37451,4.64136,-4.54175,0.274667,0.061037,-0.0305185
18091315054827,-2.37451,4.64136,-4.54175,0.274667,0.061037,-0.0305185
18091315267772,-2.37451,4.64136,-4.54175,0.274667,0.061037,-0.0305185
18091315480309,-2.37451,4.64136,-4.54175,0.274667,0.061037,-0.0305185
18091315692939,-2.37451,4.64136,-4.54175,0.274667,0.061037,-0.0305185
18091315905735,-2.37451,4.64136,-4.54175,0.274667,0.061037,-0.0305185
18091316118235,-2.37451,4.64136,-4.54175,0.274667,0.061037,-0.0305185
18091316341105,-2.37451,4.64136,-4.54175,0.274667,0.061037,-0.0305185
18091316553846,-2.37451,4.64136,-4.54175,0.274667,0.061037,-0.0305185
18091316766494,-2.37451,4.64136,-4.54175,0.274667,0.061037,-0.0305185
18091316980031,-2.37451,4.64136,-4.54175,0.274667,0.061037,-0.0305185
18091317193087,-2.37451,4.64136,-4.54175,0.274667,0.061037,-0.0305185
18091317405179,-2.37451,4.64136,-4.54175,0.274667,0.061037,-0.0305185
18091317617753,-2.37451,4.64136,-4.54175,0.274667,0.061037,-0.0305185
18091317829920,-2.37451,4.64136,-4.54175,0.274667,0.061037,-0.0305185
18091318072087,-2.37451,4.64136,-4.54175,0.274667,0.061037,-0.0305185
18091318285420,-2.37451,4.64136,-4.54175,0.274667,0.061037,-0.0305185
18091318498179,-2.37451,4.64136,-4.54175,0.274667,0.061037,-0.0305185
18091318711068,-2.37451,4.64136,-4.54175,0.274667,0.061037,-0.0305185
18091318923846,-2.37451,4.64136,-4.54175,0.274667,0.061037,-0.0305185
18091319136513,-1.64209,-0.485596,-4.54175,0.274667,0.061037,-0.0305185
18091319350050,-1.64209,-0.485596,-4.54175,0.274667,0.061037,-0.0305185
18091319562642,-1.64209,-0.485596,-4.54175,0.274667,0.061037,-0.0305185
18091319775550,-1.64209,-0.485596,-4.54175,0.274667,0.061037,-0.0305185
18091319988531,-1.64209,-0.485596,-4.54175,0.274667,0.061037,-0.0305185
18091320216494,-1.64209,-0.485596,-4.54175,0.274667,0.061037,-0.0305185
18091320429901,-1.64209,-0.485596,-4.54175,0.274667,0.061037,-0.0305185
18091320643198,-1.64209,-0.485596,-4.54175,0.274667,0.061037,-0.0305185
18091320856216,-1.64209,-0.485596,-4.54175,0.274667,0.061037,-0.0305185
18091321068994,-1.64209,-0.485596,-4.54175,0.274667,0.061037,-0.0305185
18091321287716,-1.64209,-0.485596,-4.54175,0.274667,0.061037,-0.0305185
18091321500679,-1.64209,-0.485596,-4.54175,0.274667,0.061037,-0.0305185
18091321713476,-1.64209,-0.485596,-4.54175,0.274667,0.061037,-0.0305185
18091321926290,-1.64209,-0.485596,-4.54175,0.274667,0.061037,-0.0915555
18091322139290,-1.64209,-0.485596,-4.54175,0.274667,0.061037,-0.0915555
18091322352753,-1.64209,-0.485596,-4.54175,0.274667,0.061037,-0.0915555
18091322566050,-1.64209,-0.485596,-4.54175,0.274667,0.061037,-0.0915555
18091322779327,-1.64209,-0.485596,-4.54175,0.274667,0.061037,-0.0915555
18091322991976,-1.64209,-0.485596,-4.54175,0.274667,0.061037,-0.0915555
18091323204772,-1.64209,-0.485596,-4.54175,0.274667,0.061037,-0.0915555
18091323417439,-1.64209,-0.485596,-4.54175,0.274667,0.061037,-0.0915555
18091323630309,-1.64209,-0.485596,-4.54175,0.274667,0.061037,-0.0915555
18091323842772,-1.64209,-0.485596,-4.54175,0.274667,0.061037,-0.0915555
18091324058161,-1.64209,-0.485596,-4.54175,0.274667,0.061037,-0.0915555
18091324286439,-1.64209,-0.485596,-4.54175,0.274667,0.061037,-0.0915555
18091324500401,-1.64209,-0.485596,-4.54175,0.274667,0.061037,-0.0915555
18091324713346,-1.64209,-0.485596,-4.54175,0.274667,0.061037,-0.0915555
18091324926161,-1.64209,-0.485596,-4.54175,0.274667,0.061037,-0.0915555
18091325138494,-1.64209,-0.485596,-4.54175,0.274667,0.061037,-0.0915555
18091325352531,-1.64209,-0.485596,-4.54175,0.274667,0.061037,-0.0915555
18091325565161,-1.64209,-0.485596,-4.54175,0,0,0
18091325776994,-1.64209,-0.485596,-4.54175,0,0,0
18091325988124,-1.64209,-0.485596,-4.54175,0,0,0
18091326199198,-1.64209,-0.485596,-4.54175,0,0,0
18091326410883,-1.64209,-0.485596,-4.54175,0,0,0
18091326622587,-1.64209,-0.485596,-4.54175,0,0,0
18091326833994,-1.64209,-0.485596,-4.54175,0,0,0
18091327045327,-1.64209,-0.485596,-4.54175,0,0,0
18091327256994,-1.64209,-0.485596,-4.54175,0,0,0
18091327468698,-1.64209,-0.485596,-4.54175,0,0,0
18091327680364,-1.64209,-0.485596,-4.54175,0,0,0
18091327892142,-1.64209,-0.485596,-4.54175,0,0,0
18091328074605,-1.64209,-0.485596,-4.54175,0,0,0
18091328296550,-1.64209,-0.485596,-4.54175,0,0,0
18091328509253,-1.64209,-0.485596,-4.54175,0,0,0
18091328720994,-1.64209,-0.485596,-4.54175,0,0,0
18091328932568,-1.64209,0.246826,-0.879639,0,0,0
18091329144179,-1.64209,0.246826,-0.879639,0,0,0
18091329356642,-1.64209,0.246826,-0.879639,0,0,0
18091329568846,-1.64209,0.246826,-0.879639,0,0,0
18091329780864,-1.64209,0.246826,-0.879639,0,0,0
18091329992494,-1.64209,0.246826,-0.879639,0,0,0
18091330204087,-1.64209,0.246826,-0.879639,0,0,0
18091330415827,-1.64209,0.246826,-0.879639,0,0,0
18091330627846,-1.64209,0.246826,-0.879639,0,0,0
18091330839809,-1.64209,0.246826,-0.879639,0,0,0
18091331051161,-1.64209,0.246826,-0.879639,0,0,0
18091331262864,-1.64209,0.246826,-0.879639,0,0,0
18091331474420,-1.64209,0.246826,-0.879639,0,0,0
18091331686105,-1.64209,0.246826,-0.879639,0,0,0
18091331898272,-1.64209,0.246826,-0.879639,0,0,0
18091332061327,-1.64209,0.246826,-0.879639,0,0,0
18091332281790,-1.64209,0.246826,-0.879639,0,0,0
18091332522994,-1.64209,0.246826,-0.879639,-0.061037,-0.122074,-0.21363
18091332737253,-1.64209,0.246826,-0.879639,-0.061037,-0.122074,-0.21363
18091332950439,-1.64209,0.246826,-0.879639,-0.061037,-0.122074,-0.21363
18091333164216,-1.64209,0.246826,-0.879639,-0.061037,-0.122074,-0.21363
18091333376939,-1.64209,0.246826,-0.879639,-0.061037,-0.122074,-0.21363
18091333590309,-1.64209,0.246826,-0.879639,-0.061037,-0.122074,-0.21363
18091333803439,-1.64209,0.246826,-0.879639,-0.061037,-0.122074,-0.21363
18091334016679,-1.64209,0.246826,-0.879639,-0.061037,-0.122074,-0.21363
18091334229920,-1.64209,0.246826,-0.879639,-0.061037,-0.122074,-0.21363
18091334443624,-1.64209,0.246826,-0.879639,-0.061037,-0.122074,-0.21363
18091334657068,-1.64209,0.246826,-0.879639,-0.061037,-0.122074,-0.21363
18091334870124,-1.64209,0.246826,-0.879639,-0.061037,-0.122074,-0.21363
18091335083494,-1.64209,0.246826,-0.879639,-0.061037,-0.122074,-0.21363
18091335296364,-1.64209,0.246826,-0.879639,-0.061037,-0.122074,-0.21363
18091335514753,-1.64209,0.246826,-0.879639,-0.061037,-0.122074,-0.21363
18091335728401,-1.64209,0.246826,-0.879639,-0.061037,-0.122074,-0.21363
18091335941568,-1.64209,0.246826,-0.879639,-0.061037,-0.122074,-0.21363
18091336187901,-1.64209,0.246826,-0.879639,-0.061037,-0.122074,-0.21363
18091336402198,-1.64209,0.246826,-0.879639,-0.061037,-0.122074,-0.21363
18091336615790,-1.64209,0.246826,-0.879639,-0.061037,-0.122074,-0.21363
18091336828976,-1.64209,0.246826,-0.879639,-0.061037,-0.122074,-0.21363
18091337041920,-1.64209,0.246826,-0.879639,-0.061037,-0.122074,-0.21363
18091337255346,-1.64209,0.246826,-0.879639,-0.061037,-0.122074,-0.21363
18091337468401,-1.64209,0.246826,-0.879639,-0.061037,-0.122074,-0.21363
18091337681661,-1.64209,0.246826,-0.879639,-0.061037,-0.122074,-0.21363
18091337895420,-1.64209,0.246826,-0.879639,-0.061037,-0.122074,-0.21363
18091338108939,-1.64209,0.246826,-0.879639,-0.061037,-0.122074,-0.21363
18091338322864,-1.64209,0.246826,-0.879639,-0.061037,-0.122074,-0.21363
18091338542309,-1.64209,0.246826,-0.879639,-0.061037,-0.122074,-0.21363
18091338756494,-1.64209,0.246826,-0.879639,-0.061037,-0.122074,-0.21363
18091338970216,-0.177246,0.246826,-0.879639,-0.061037,-0.122074,-0.21363
18091339183401,-0.177246,0.246826,-0.879639,-0.061037,-0.122074,-0.21363
18091339396290,-0.177246,0.246826,-0.879639,-0.061037,-0.122074,-0.21363
18091339609716,-0.177246,0.246826,-0.879639,-0.061037,-0.122074,-0.21363
18091339823568,-0.177246,0.246826,-0.879639,-0.061037,-0.122074,-0.21363
18091340058698,-0.177246,0.246826,-0.879639,-0.061037,-0.122074,-0.21363
18091340281679,-0.177246,0.246826,-0.879639,-0.061037,-0.122074,-0.21363
18091340495809,-0.177246,0.246826,-0.879639,-0.061037,-0.122074,-0.21363
18091340709216,-0.177246,0.246826,-0.879639,-0.061037,-0.122074,-0.21363
18091340922605,-0.177246,0.246826,-0.879639,-0.061037,-0.122074,-0.21363
18091341136031,-0.177246,0.246826,-0.879639,-0.061037,-0.122074,-0.21363
18091341349253,-0.177246,0.246826,-0.879639,-0.061037,-0.122074,-0.21363
18091341562679,-0.177246,0.246826,-0.879639,-0.061037,-0.122074,-0.21363
18091341781624,-0.177246,0.246826,-0.879639,-0.061037,-0.122074,-0.21363
18091341995198,-0.177246,0.246826,-0.879639,0.21363,0.0915555,-0.122074
18091342208994,-0.177246,0.246826,-0.879639,0.21363,0.0915555,-0.122074
18091342422253,-0.177246,0.246826,-0.879639,0.21363,0.0915555,-0.122074
18091342635716,-0.177246,0.246826,-0.879639,0.21363,0.0915555,-0.122074
18091342849068,-0.177246,0.246826,-0.879639,0.21363,0.0915555,-0.122074
18091343061698,-0.177246,0.246826,-0.879639,0.21363,0.0915555,-0.122074
18091343274846,-0.177246,0.246826,-0.879639,0.21363,0.0915555,-0.122074
18091343487790,-0.177246,0.246826,-0.879639,0.21363,0.0915555,-0.122074
18091343700457,-0.177246,0.246826,-0.879639,0.21363,0.0915555,-0.122074
18091343913920,-0.177246,0.246826,-0.879639,0.21363,0.0915555,-0.122074
18091344151531,-0.177246,0.246826,-0.879639,0.21363,0.0915555,-0.122074
18091344373753,-0.177246,0.246826,-0.879639,0.21363,0.0915555,-0.122074
18091344587364,-0.177246,0.246826,-0.879639,0.21363,0.0915555,-0.122074
18091344829994,-0.177246,0.246826,-0.879639,0.21363,0.0915555,-0.122074
18091345044476,-0.177246,0.246826,-0.879639,0.21363,0.0915555,-0.122074
18091345258624,-0.177246,0.246826,-0.879639,0.21363,0.0915555,-0.122074
18091345471827,-0.177246,0.246826,-0.879639,0,0,0
18091345684179,-0.177246,0.246826,-0.879639,0,0,0
18091345895827,-0.177246,0.246826,-0.879639,0,0,0
18091346108346,-0.177246,0.246826,-0.879639,0,0,0
18091346320735,-0.177246,0.246826,-0.879639,0,0,0
18091346532476,-0.177246,0.246826,-0.879639,0,0,0
18091346745013,-0.177246,0.246826,-0.879639,0,0,0
18091346956846,-0.177246,0.246826,-0.879639,0,0,0
18091347168198,-0.177246,0.246826,-0.879639,0,0,0
18091347380605,-0.177246,0.246826,-0.879639,0,0,0
18091347592457,-0.177246,0.246826,-0.879639,0,0,0
18091347804272,-0.177246,0.246826,-0.879639,0,0,0
18091348024198,-0.177246,0.246826,-0.879639,0,0,0
18091348246994,-0.177246,0.246826,-0.879639,0,0,0
18091348459550,-0.177246,0.246826,-0.879639,0,0,0
18091348672290,-0.177246,0.246826,-0.879639,0,0,0
18091348890142,1.2876,-2.68286,-3.0769,0,0,0
18091349101272,1.2876,-2.68286,-3.0769,0,0,0
18091349311790,1.2876,-2.68286,-3.0769,0,0,0
18091349522476,1.2876,-2.68286,-3.0769,0,0,0
18091349733013,1.2876,-2.68286,-3.0769,0,0,0
18091349944068,1.2876,-2.68286,-3.0769,0,0,0
18091350154272,1.2876,-2.68286,-3.0769,0,0,0
18091350364642,1.2876,-2.68286,-3.0769,0,0,0
18091350574957,1.2876,-2.68286,-3.0769,0,0,0
18091350785383,1.2876,-2.68286,-3.0769,0,0,0
18091350995253,1.2876,-2.68286,-3.0769,0,0,0
18091351205105,1.2876,-2.68286,-3.0769,0,0,0
18091351415531,1.2876,-2.68286,-3.0769,0,0,0
18091351625513,1.2876,-2.68286,-3.0769,0,0,0
18091351836142,1.2876,-2.68286,-3.0769,0,0,0
18091352049661,1.2876,-2.68286,-3.0769,0,0,0
18091352269976,1.2876,-2.68286,-3.0769,0,0,0
18091352480846,1.2876,-2.68286,-3.0769,0,0,0
18091352691439,1.2876,-2.68286,-3.0769,0.152593,0.061037,-0.122074
18091352903939,1.2876,-2.68286,-3.0769,0.152593,0.061037,-0.122074
18091353117235,1.2876,-2.68286,-3.0769,0.152593,0.061037,-0.122074
18091353335753,1.2876,-2.68286,-3.0769,0.152593,0.061037,-0.122074
18091353548809,1.2876,-2.68286,-3.0769,0.152593,0.061037,-0.122074
18091353761179,1.2876,-2.68286,-3.0769,0.152593,0.061037,-0.122074
18091353974068,1.2876,-2.68286,-3.0769,0.152593,0.061037,-0.122074
18091354187179,1.2876,-2.68286,-3.0769,0.152593,0.061037,-0.122074
18091354399809,1.2876,-2.68286,-3.0769,0.152593,0.061037,-0.122074
18091354612364,1.2876,-2.68286,-3.0769,0.152593,0.061037,-0.122074
18091354824753,1.2876,-2.68286,-3.0769,0.152593,0.061037,-0.122074
18091355037587,1.2876,-2.68286,-3.0769,0.152593,0.061037,-0.122074
18091355250420,1.2876,-2.68286,-3.0769,0.152593,0.061037,-0.122074
18091355463087,1.2876,-2.68286,-3.0769,0.152593,0.061037,-0.122074
18091355675513,1.2876,-2.68286,-3.0769,0.152593,0.061037,-0.122074
18091355887883,1.2876,-2.68286,-3.0769,0.152593,0.061037,-0.122074
18091356102994,1.2876,-2.68286,-3.0769,0.152593,0.061037,-0.122074
18091356324401,1.2876,-2.68286,-3.0769,0.152593,0.061037,-0.122074
18091356542661,1.2876,-2.68286,-3.0769,0.152593,0.061037,-0.122074
18091356756013,1.2876,-2.68286,-3.0769,0.152593,0.061037,-0.122074
18091356969087,1.2876,-2.68286,-3.0769,0.152593,0.061037,-0.122074
18091357181827,1.2876,-2.68286,-3.0769,0.152593,0.061037,-0.122074
18091357394513,1.2876,-2.68286,-3.0769,0.152593,0.061037,-0.122074
18091357607050,1.2876,-2.68286,-3.0769,0.152593,0.061037,-0.122074
18091357820068,1.2876,-2.68286,-3.0769,0.152593,0.061037,-0.122074
18091358032327,1.2876,-2.68286,-3.0769,0.152593,0.061037,-0.122074
18091358244920,1.2876,-2.68286,-3.0769,0.152593,0.061037,-0.122074
18091358457050,1.2876,-2.68286,-3.0769,0.152593,0.061037,-0.122074
18091358669494,1.2876,-2.68286,-3.0769,0.152593,0.061037,-0.122074
18091358883142,2.02002,0.246826,-1.61206,0.152593,0.061037,-0.122074
18091359096272,2.02002,0.246826,-1.61206,0.152593,0.061037,-0.122074
18091359309642,2.02002,0.246826,-1.61206,0.152593,0.061037,-0.122074
18091359523050,2.02002,0.246826,-1.61206,0.152593,0.061037,-0.122074
18091359765661,2.02002,0.246826,-1.61206,0.152593,0.061037,-0.122074
18091359979494,2.02002,0.246826,-1.61206,0.152593,0.061037,-0.122074
18091360212587,2.02002,0.246826,-1.61206,0.152593,0.061037,-0.122074
18091360425883,2.02002,0.246826,-1.61206,0.152593,0.061037,-0.122074
18091360639476,2.02002,0.246826,-1.61206,0.152593,0.061037,-0.122074
18091360851846,2.02002,0.246826,-1.61206,0.152593,0.061037,-0.122074
18091361064550,2.02002,0.246826,-1.61206,0.152593,0.061037,-0.122074
18091361277605,2.02002,0.246826,-1.61206,0.152593,0.061037,-0.122074
18091361490568,2.02002,0.246826,-1.61206,0.152593,0.061037,-0.122074
18091361703161,2.02002,0.246826,-1.61206,0.152593,0.061037,-0.122074
18091361916679,2.02002,0.246826,-1.61206,0.152593,0.061037,-0.122074
18091362129679,2.02002,0.246826,-1.61206,0.244148,0.549333,0.183111
18091362341938,2.02002,0.246826,-1.61206,0.244148,0.549333,0.183111
18091362553679,2.02002,0.246826,-1.61206,0.244148,0.549333,0.183111
18091362765846,2.02002,0.246826,-1.61206,0.244148,0.549333,0.183111
18091362983772,2.02002,0.246826,-1.61206,0.244148,0.549333,0.183111
18091363196531,2.02002,0.246826,-1.61206,0.244148,0.549333,0.183111
18091363409013,2.02002,0.246826,-1.61206,0.244148,0.549333,0.183111
18091363621087,2.02002,0.246826,-1.61206,0.244148,0.549333,0.183111
18091363832253,2.02002,0.246826,-1.61206,0.244148,0.549333,0.183111
18091364065161,2.02002,0.246826,-1.61206,0.244148,0.549333,0.183111
18091364288161,2.02002,0.246826,-1.61206,0.244148,0.549333,0.183111
18091364500901,2.02002,0.246826,-1.61206,0.244148,0.549333,0.183111
18091364713605,2.02002,0.246826,-1.61206,0.244148,0.549333,0.183111
18091364925920,2.02002,0.246826,-1.61206,0.244148,0.549333,0.183111
18091365137605,2.02002,0.246826,-1.61206,0.244148,0.549333,0.183111
18091365349790,2.02002,0.246826,-1.61206,0,0,0
18091365562346,2.02002,0.246826,-1.61206,0,0,0
18091365773846,2.02002,0.246826,-1.61206,0,0,0
18091365985272,2.02002,0.246826,-1.61206,0,0,0
18091366196642,2.02002,0.246826,-1.61206,0,0,0
18091366408087,2.02002,0.246826,-1.61206,0,0,0
18091366624901,2.02002,0.246826,-1.61206,0,0,0
18091366836179,2.02002,0.246826,-1.61206,0,0,0
18091367047698,2.02002,0.246826,-1.61206,0,0,0
18091367259568,2.02002,0.246826,-1.61206,0,0,0
18091367471401,2.02002,0.246826,-1.61206,0,0,0
18091367683013,2.02002,0.246826,-1.61206,0,0,0
18091367894438,2.02002,0.246826,-1.61206,0,0,0
18091368108938,2.02002,0.246826,-1.61206,0,0,0
18091368330457,2.02002,0.246826,-1.61206,0,0,0
18091368542698,2.02002,0.246826,-1.61206,0,0,0
18091368754198,0.555176,1.71167,1.31763,0,0,0
18091368965661,0.555176,1.71167,1.31763,0,0,0
18091369177105,0.555176,1.71167,1.31763,0,0,0
18091369388864,0.555176,1.71167,1.31763,0,0,0
18091369600327,0.555176,1.71167,1.31763,0,0,0
18091369811179,0.555176,1.71167,1.31763,0,0,0
18091370022235,0.555176,1.71167,1.31763,0,0,0
18091370233994,0.555176,1.71167,1.31763,0,0,0
18091370446031,0.555176,1.71167,1.31763,0,0,0
18091370658235,0.555176,1.71167,1.31763,0,0,0
18091370869272,0.555176,1.71167,1.31763,0,0,0
18091371080901,0.555176,1.71167,1.31763,0,0,0
18091371298031,0.555176,1.71167,1.31763,0,0,0
18091371509790,0.555176,1.71167,1.31763,0,0,0
18091371721883,0.555176,1.71167,1.31763,0,0,0
18091371933420,0.555176,1.71167,1.31763,0,0,0
18091372166290,0.555176,1.71167,1.31763,0,0,0
18091372384346,0.555176,1.71167,1.31763,0,0,0
18091372592031,0.555176,1.71167,1.31763,0.0915555,0.305185,0.244148
18091372802531,0.555176,1.71167,1.31763,0.0915555,0.305185,0.244148
18091373011753,0.555176,1.71167,1.31763,0.0915555,0.305185,0.244148
18091373221013,0.555176,1.71167,1.31763,0.0915555,0.305185,0.244148
18091373430735,0.555176,1.71167,1.31763,0.0915555,0.305185,0.244148
18091373640346,0.555176,1.71167,1.31763,0.0915555,0.305185,0.244148
18091373849938,0.555176,1.71167,1.31763,0.0915555,0.305185,0.244148
18091374059179,0.555176,1.71167,1.31763,0.0915555,0.305185,0.244148
18091374268476,0.555176,1.71167,1.31763,0.0915555,0.305185,0.244148
18091374477642,0.555176,1.71167,1.31763,0.0915555,0.305185,0.244148
18091374686661,0.555176,1.71167,1.31763,0.0915555,0.305185,0.244148
18091374925235,0.555176,1.71167,1.31763,0.0915555,0.305185,0.244148
18091375135624,0.555176,1.71167,1.31763,0.0915555,0.305185,0.244148
18091375344994,0.555176,1.71167,1.31763,0.0915555,0.305185,0.244148
18091375554605,0.555176,1.71167,1.31763,0.0915555,0.305185,0.244148
18091375764124,0.555176,1.71167,1.31763,0.0915555,0.305185,0.244148
18091375973605,0.555176,1.71167,1.31763,0.0915555,0.305185,0.244148
18091376261087,0.555176,1.71167,1.31763,0.0915555,0.305185,0.244148
18091376475494,0.555176,1.71167,1.31763,0.0915555,0.305185,0.244148
18091376688105,0.555176,1.71167,1.31763,0.0915555,0.305185,0.244148
18091376901031,0.555176,1.71167,1.31763,0.0915555,0.305185,0.244148
18091377113846,0.555176,1.71167,1.31763,0.0915555,0.305185,0.244148
18091377326198,0.555176,1.71167,1.31763,0.0915555,0.305185,0.244148
18091377539753,0.555176,1.71167,1.31763,0.0915555,0.305185,0.244148
18091377753550,0.555176,1.71167,1.31763,0.0915555,0.305185,0.244148
18091377966457,0.555176,1.71167,1.31763,0.0915555,0.305185,0.244148
18091378184846,0.555176,1.71167,1.31763,0.0915555,0.305185,0.244148
18091378397216,0.555176,1.71167,1.31763,0.0915555,0.305185,0.244148
18091378609290,-0.909668,4.64136,-3.0769,0.0915555,0.305185,0.244148
18091378823179,-0.909668,4.64136,-3.0769,0.0915555,0.305185,0.244148
18091379036087,-0.909668,4.64136,-3.0769,0.0915555,0.305185,0.244148
18091379248772,-0.909668,4.64136,-3.0769,0.0915555,0.305185,0.244148
18091379461383,-0.909668,4.64136,-3.0769,0.0915555,0.305185,0.244148
18091379673790,-0.909668,4.64136,-3.0769,0.0915555,0.305185,0.244148
18091379887105,-0.909668,4.64136,-3.0769,0.0915555,0.305185,0.244148
18091380102457,-0.909668,4.64136,-3.0769,0.0915555,0.305185,0.244148
18091380324457,-0.909668,4.64136,-3.0769,0.0915555,0.305185,0.244148
18091380537364,-0.909668,4.64136,-3.0769,0.0915555,0.305185,0.244148
18091380749531,-0.909668,4.64136,-3.0769,0.0915555,0.305185,0.244148
18091380962624,-0.909668,4.64136,-3.0769,0.0915555,0.305185,0.244148
18091381175661,-0.909668,4.64136,-3.0769,0.0915555,0.305185,0.244148
18091381393976,-0.909668,4.64136,-3.0769,0.0915555,0.305185,0.244148
18091381606661,-0.909668,4.64136,-3.0769,0.0915555,0.305185,0.244148
18091381818938,-0.909668,4.64136,-3.0769,0.0915555,0.305185,0.244148
18091382031827,-0.909668,4.64136,-3.0769,0.0915555,0.427259,0.122074
18091382244864,-0.909668,4.64136,-3.0769,0.0915555,0.427259,0.122074
18091382457142,-0.909668,4.64136,-3.0769,0.0915555,0.427259,0.122074
18091382669401,-0.909668,4.64136,-3.0769,0.0915555,0.427259,0.122074
18091382882401,-0.909668,4.64136,-3.0769,0.0915555,0.427259,0.122074
18091383095346,-0.909668,4.64136,-3.0769,0.0915555,0.427259,0.122074
18091383307938,-0.909668,4.64136,-3.0769,0.0915555,0.427259,0.122074
18091383520716,-0.909668,4.64136,-3.0769,0.0915555,0.427259,0.122074
18091383733401,-0.909668,4.64136,-3.0769,0.0915555,0.427259,0.122074
18091383946438,-0.909668,4.64136,-3.0769,0.0915555,0.427259,0.122074
18091384194550,-0.909668,4.64136,-3.0769,0.0915555,0.427259,0.122074
18091384408346,-0.909668,4.64136,-3.0769,0.0915555,0.427259,0.122074
18091384627290,-0.909668,4.64136,-3.0769,0.0915555,0.427259,0.122074
18091384840698,-0.909668,4.64136,-3.0769,0.0915555,0.427259,0.122074
18091385053976,-0.909668,4.64136,-3.0769,0.0915555,0.427259,0.122074
18091385267272,-0.909668,4.64136,-3.0769,0.0915555,0.427259,0.122074
18091385480031,-0.909668,4.64136,-3.0769,0,0,0
18091385691901,-0.909668,4.64136,-3.0769,0,0,0
18091385903587,-0.909668,4.64136,-3.0769,0,0,0
18091386115624,-0.909668,4.64136,-3.0769,0,0,0
18091386327198,-0.909668,4.64136,-3.0769,0,0,0
18091386538827,-0.909668,4.64136,-3.0769,0,0,0
18091386749661,-0.909668,4.64136,-3.0769,0,0,0
18091386961124,-0.909668,4.64136,-3.0769,0,0,0
18091387172568,-0.909668,4.64136,-3.0769,0,0,0
18091387384383,-0.909668,4.64136,-3.0769,0,0,0
18091387595883,-0.909668,4.64136,-3.0769,0,0,0
18091387806901,-0.909668,4.64136,-3.0769,0,0,0
18091388024642,-0.909668,4.64136,-3.0769,0,0,0
18091388247642,-0.909668,4.64136,-3.0769,0,0,0
18091388459494,-0.909668,4.64136,-3.0769,0,0,0
18091388671142,-3.10693,3.17651,-4.54175,0,0,0
18091388923216,-3.10693,3.17651,-4.54175,0,0,0
18091389134476,-3.10693,3.17651,-4.54175,0,0,0
18091389344901,-3.10693,3.17651,-4.54175,0,0,0
18091389555790,-3.10693,3.17651,-4.54175,0,0,0
18091389765827,-3.10693,3.17651,-4.54175,0,0,0
18091389976253,-3.10693,3.17651,-4.54175,0,0,0
18091390186124,-3.10693,3.17651,-4.54175,0,0,0
18091390396161,-3.10693,3.17651,-4.54175,0,0,0
18091390606494,-3.10693,3.17651,-4.54175,0,0,0
18091390816327,-3.10693,3.17651,-4.54175,0,0,0
18091391026235,-3.10693,3.17651,-4.54175,0,0,0
18091391236679,-3.10693,3.17651,-4.54175,0,0,0
18091391447235,-3.10693,3.17651,-4.54175,0,0,0
18091391657364,-3.10693,3.17651,-4.54175,0,0,0
18091391867661,-3.10693,3.17651,-4.54175,0,0,0
18091392080272,-3.10693,3.17651,-4.54175,0,0,0
18091392299031,-3.10693,3.17651,-4.54175,0,0,0
18091392509679,-3.10693,3.17651,-4.54175,0.152593,0.244148,0.305185
18091392721346,-3.10693,3.17651,-4.54175,0.152593,0.244148,0.305185
18091392932957,-3.10693,3.17651,-4.54175,0.152593,0.244148,0.305185
18091393150031,-3.10693,3.17651,-4.54175,0.152593,0.244148,0.305185
18091393362013,-3.10693,3.17651,-4.54175,0.152593,0.244148,0.305185
18091393574031,-3.10693,3.17651,-4.54175,0.152593,0.244148,0.305185
18091393785827,-3.10693,3.17651,-4.54175,0.152593,0.244148,0.305185
18091393997827,-3.10693,3.17651,-4.54175,0.152593,0.244148,0.305185
18091394208809,-3.10693,3.17651,-4.54175,0.152593,0.244148,0.305185
18091394420401,-3.10693,3.17651,-4.54175,0.152593,0.244148,0.305185
18091394631716,-3.10693,3.17651,-4.54175,0.152593,0.244148,0.305185
18091394843142,-3.10693,3.17651,-4.54175,0.152593,0.244148,0.305185
18091395054142,-3.10693,3.17651,-4.54175,0.152593,0.244148,0.305185
18091395265957,-3.10693,3.17651,-4.54175,0.152593,0.244148,0.305185
18091395477568,-3.10693,3.17651,-4.54175,0.152593,0.244148,0.305185
18091395689327,-3.10693,3.17651,-4.54175,0.152593,0.244148,0.305185
18091395901198,-3.10693,3.17651,-4.54175,0.152593,0.244148,0.305185
18091396076253,-3.10693,3.17651,-4.54175,0.152593,0.244148,0.305185
18091396303364,-3.10693,3.17651,-4.54175,0.152593,0.244148,0.305185
18091396515753,-3.10693,3.17651,-4.54175,0.152593,0.244148,0.305185
18091396727290,-3.10693,3.17651,-4.54175,0.152593,0.244148,0.305185
18091396939679,-3.10693,3.17651,-4.54175,0.152593,0.244148,0.305185
18091397151790,-3.10693,3.17651,-4.54175,0.152593,0.244148,0.305185
18091397364253,-3.10693,3.17651,-4.54175,0.152593,0.244148,0.305185
18091397576272,-3.10693,3.17651,-4.54175,0.152593,0.244148,0.305185
18091397787957,-3.10693,3.17651,-4.54175,0.152593,0.244148,0.305185
18091397999772,-3.10693,3.17651,-4.54175,0.152593,0.244148,0.305185
18091398211679,-3.10693,3.17651,-4.54175,0.152593,0.244148,0.305185
18091398423753,-1.64209,1.71167,-5.27417,0.152593,0.244148,0.305185
18091398635827,-1.64209,1.71167,-5.27417,0.152593,0.244148,0.305185
18091398848013,-1.64209,1.71167,-5.27417,0.152593,0.244148,0.305185
18091399059438,-1.64209,1.71167,-5.27417,0.152593,0.244148,0.305185
18091399271290,-1.64209,1.71167,-5.27417,0.152593,0.244148,0.305185
18091399489161,-1.64209,1.71167,-5.27417,0.152593,0.244148,0.305185
18091399701716,-1.64209,1.71167,-5.27417,0.152593,0.244148,0.305185
18091399913957,-1.64209,1.71167,-5.27417,0.152593,0.244148,0.305185
18091400143216,-1.64209,1.71167,-5.27417,0.152593,0.244148,0.305185
18091400364013,-1.64209,1.71167,-5.27417,0.152593,0.244148,0.305185
18091400576105,-1.64209,1.71167,-5.27417,0.152593,0.244148,0.305185
18091400787920,-1.64209,1.71167,-5.27417,0.152593,0.244148,0.305185
18091401000457,-1.64209,1.71167,-5.27417,0.152593,0.244148,0.305185
18091401213105,-1.64209,1.71167,-5.27417,0.152593,0.244148,0.305185
18091401425124,-1.64209,1.71167,-5.27417,0.152593,0.244148,0.305185
18091401637364,-1.64209,1.71167,-5.27417,0.152593,0.244148,0.305185
18091401849346,-1.64209,1.71167,-5.27417,0.152593,0.244148,0.305185
18091402061290,-1.64209,1.71167,-5.27417,0.183111,0.21363,0.122074
18091402274327,-1.64209,1.71167,-5.27417,0.183111,0.21363,0.122074
18091402487457,-1.64209,1.71167,-5.27417,0.183111,0.21363,0.122074
18091402699957,-1.64209,1.71167,-5.27417,0.183111,0.21363,0.122074
18091402929809,-1.64209,1.71167,-5.27417,0.183111,0.21363,0.122074
18091403144124,-1.64209,1.71167,-5.27417,0.183111,0.21363,0.122074
18091403357383,-1.64209,1.71167,-5.27417,0.183111,0.21363,0.122074
18091403570698,-1.64209,1.71167,-5.27417,0.183111,0.21363,0.122074
18091403784031,-1.64209,1.71167,-5.27417,0.183111,0.21363,0.122074
18091403997383,-1.64209,1.71167,-5.27417,0.183111,0.21363,0.122074
18091404235753,-1.64209,1.71167,-5.27417,0.183111,0.21363,0.122074
18091404448383,-1.64209,1.71167,-5.27417,0.183111,0.21363,0.122074
18091404661309,-1.64209,1.71167,-5.27417,0.183111,0.21363,0.122074
18091404874161,-1.64209,1.71167,-5.27417,0.183111,0.21363,0.122074
18091405086161,-1.64209,1.71167,-5.27417,0.183111,0.21363,0.122074
18091405299457,-1.64209,1.71167,-5.27417,0.183111,0.21363,-999.817
18091405515513,-1.64209,1.71167,-5.27417,0,0,0
18091405726624,-1.64209,1.71167,-5.27417,0,0,0
18091405937068,-1.64209,1.71167,-5.27417,0,0,0
18091406147494,-1.64209,1.71167,-5.27417,0,0,0
18091406366161,-1.64209,1.71167,-5.27417,0,0,0
18091406577605,-1.64209,1.71167,-5.27417,0,0,0
18091406788494,-1.64209,1.71167,-5.27417,0,0,0
