Gyro t,Gyro X, Gyro Y, Gyro Z,Accel t, Accel X, Accel Y, Accel Z 
17917773065212,-0.0945463,-0.273812,0.0799585,17917773026694,0,0.687744,-2.75098
17917773203099,-0.0945463,-0.273812,0.0799585,17917773164637,0,0.687744,-2.75098
17917773287339,-0.0945463,-0.273812,0.0799585,17917773248987,0,0.687744,-2.75098
17917773371504,-0.0945463,-0.273812,0.0799585,17917773333153,0,0.687744,-2.75098
17917773455373,-0.0945463,-0.273812,0.0799585,17917773416948,0,0.687744,-2.75098
17917773539057,-0.0945463,-0.273812,0.0799585,17917773500613,0,0.687744,-2.75098
17917773622685,-0.0945463,-0.273812,0.0799585,17917773584352,0,0.687744,-2.75098
17917773706221,-0.0945463,-0.273812,0.0799585,17917773667814,0,0.687744,-2.75098
17917773789720,-0.0945463,-0.273812,0.0799585,17917773751257,0,0.687744,-2.75098
17917773873163,-0.0945463,-0.273812,0.0799585,17917773834793,0,0.687744,-2.75098
17917773956643,-0.0945463,-0.273812,0.0799585,17917773918236,0,0.687744,-2.75098
17917774040142,-0.0335093,-0.151738,0.202033,17917774001698,0,0.687744,-2.75098
17917774123529,-0.0335093,-0.151738,0.202033,17917774085104,0,0.687744,-2.75098
17917774206880,-0.0335093,-0.151738,0.202033,17917774168529,0,0.687744,-2.75098
17917774290193,-0.0335093,-0.151738,0.202033,17917774251824,0,0.687744,-2.75098
17917774373488,-0.0335093,-0.151738,0.202033,17917774335063,0,0.687744,-2.75098
17917774456728,-0.0335093,-0.151738,0.202033,17917774418395,0,0.687744,-2.75098
17917774540134,-0.0335093,-0.151738,0.202033,17917774501672,0,0.687744,-2.75098
17917774623503,-0.0335093,-0.151738,0.202033,17917774585078,0,0.687744,-2.75098
17917774706816,-0.0335093,-0.151738,0.202033,17917774668410,0,0.687744,-2.75098
17917774790074,-0.0335093,-0.151738,0.202033,17917774751686,0,0.687744,-2.75098
17917774873351,-0.0335093,-0.151738,0.202033,17917774834981,0,0.687744,-2.75098
17917774956720,-0.0335093,-0.151738,0.202033,17917774918295,0,0.687744,-2.75098
17917775040126,-0.0335093,-0.151738,0.202033,17917775001664,0,0.687744,-2.75098
17917775123384,-0.0335093,-0.151738,0.202033,17917775085014,0,0.687744,-2.75098
17917775206716,-0.0335093,-0.151738,0.202033,17917775168309,0,0.687744,-2.75098
17917775290122,-0.0335093,-0.151738,0.202033,17917775251678,0,0.687744,-2.75098
17917775373473,-0.0335093,-0.151738,0.202033,17917775335047,0,0.687744,-2.75098
17917775456823,-0.0335093,-0.151738,0.202033,17917775418379,0,0.687744,-2.75098
17917775540174,-0.0335093,-0.151738,0.202033,17917775501730,0,0.687744,-2.75098
17917775623524,-0.0335093,-0.151738,0.202033,17917775585099,0,0.687744,-2.75098
17917775706838,-0.0335093,-0.151738,0.202033,17917775668450,0,0.687744,-2.75098
17917775790170,-0.0335093,-0.151738,0.202033,17917775751689,0,0.687744,-2.75098
17917775873539,-0.0335093,-0.151738,0.202033,17917775835095,0,0.687744,-2.75098
17917775956871,-0.0335093,-0.151738,0.202033,17917775918501,0,0.687744,-2.75098
17917776049481,-0.0335093,-0.151738,0.202033,17917776010852,0,0.687744,-2.75098
17917776134739,-0.0335093,-0.151738,0.202033,17917776096313,0,0.687744,-2.75098
17917776218108,-0.0335093,-0.151738,0.202033,17917776179682,0,0.687744,-2.75098
17917776301366,-0.0335093,-0.151738,0.202033,17917776263014,0,0.687744,-2.75098
17917776384661,-0.0335093,-0.151738,0.202033,17917776346217,0,0.687744,-2.75098
17917776467919,-0.0335093,-0.151738,0.202033,17917776429549,0,0.687744,-2.75098
17917776551121,-0.0335093,-0.151738,0.202033,17917776512770,0,0.687744,-2.75098
17917776634361,-0.0335093,-0.151738,0.202033,17917776595935,0,0.687744,-2.75098
17917776717619,-0.0335093,-0.151738,0.202033,17917776679212,0,0.687744,-2.75098
17917776800895,-0.0335093,-0.151738,0.202033,17917776762470,0,0.687744,-2.75098
17917776884153,-0.0335093,-0.151738,0.202033,17917776845783,0,0.687744,-2.75098
17917776967374,-0.0335093,-0.151738,0.202033,17917776929023,0,0.687744,-2.75098
17917777050613,-0.0335093,-0.151738,0.202033,17917777012244,0,0.687744,-2.75098
17917777133945,-0.0335093,-0.151738,0.202033,17917777095594,0,0.687744,-2.75098
17917777235370,-0.0335093,-0.151738,0.202033,17917777196926,0,0.687744,-2.75098
17917777318998,-0.0335093,-0.151738,0.202033,17917777280573,0,0.687744,-2.75098
17917777402441,-0.0335093,-0.151738,0.202033,17917777364034,0,0.687744,-2.75098
17917777485884,-0.0335093,-0.151738,0.202033,17917777447533,0,0.687744,-2.75098
17917777569290,-0.0335093,-0.151738,0.202033,17917777530884,0,0.687744,-2.75098
17917777652697,-0.0335093,-0.151738,0.202033,17917777614271,0,0.687744,-2.75098
17917777736010,-0.0335093,-0.151738,0.202033,17917777697659,0,0.687744,-2.75098
17917777819361,-0.0335093,-0.151738,0.202033,17917777780954,0,0.687744,-2.75098
17917777902730,-0.0335093,-0.151738,0.202033,17917777864378,0,0.687744,-2.75098
17917777986080,-0.0335093,-0.151738,0.202033,17917777947729,0,0.687744,-2.75098
17917778069486,-0.0335093,-0.151738,0.202033,17917778031080,0,0.687744,-2.75098
17917778152818,-0.0335093,-0.151738,0.202033,17917778114430,0,0.687744,-2.75098
17917778236132,-0.0335093,-0.151738,0.202033,17917778197781,0,0.687744,-2.75098
17917778319445,-0.0335093,-0.151738,0.202033,17917778281076,0,0.687744,-2.75098
17917778402722,-0.0335093,-0.151738,0.202033,17917778364352,0,0.687744,-2.75098
17917778486017,-0.0335093,-0.151738,0.202033,17917778447610,0,0.687744,-2.75098
17917778569367,-0.0335093,-0.151738,0.202033,17917778530924,0,0.687744,-2.75098
17917778652588,-0.0335093,-0.151738,0.202033,17917778614219,0,0.687744,-2.75098
17917778735976,-0.0335093,-0.151738,0.202033,17917778697569,0,0.687744,-2.75098
17917778819308,-0.0335093,-0.151738,0.202033,17917778780920,0,0.687744,-2.75098
17917778902622,-0.0335093,-0.151738,0.202033,17917778864270,0,0.687744,-2.75098
17917778985991,-0.0335093,-0.151738,0.202033,17917778947565,0,0.687744,-2.75098
17917779069286,-0.0335093,-0.151738,0.202033,17917779030934,0,0.687744,-2.75098
17917779152562,-0.0335093,-0.151738,0.202033,17917779114211,0,0.687744,-2.75098
17917779235857,-0.0335093,-0.151738,0.202033,17917779197506,0,0.687744,-2.75098
17917779319189,-0.0335093,-0.151738,0.202033,17917779280764,0,0.687744,-2.75098
17917779402577,-0.0335093,-0.151738,0.202033,17917779364133,0,0.687744,-2.75098
17917779486001,-0.0335093,-0.151738,0.202033,17917779447558,0,0.687744,-2.75098
17917779569296,-0.0335093,-0.151738,0.202033,17917779530945,0,0.687744,-2.75098
17917779652665,-0.0335093,-0.151738,0.202033,17917779614240,0,0.687744,-2.75098
17917779735979,-0.0335093,-0.151738,0.202033,17917779697628,0,0.687744,-2.75098
17917779819274,-0.0335093,-0.151738,0.202033,17917779780867,0,0.687744,-2.75098
17917779902606,-0.0335093,-0.151738,0.202033,17917779864181,0,0.687744,-2.75098
17917779985827,-0.0335093,-0.151738,0.202033,17917779947457,0,0.687744,-2.75098
17917780077770,-0.0335093,-0.151738,0.202033,17917780039289,0,0.687744,-2.75098
17917780162713,-0.0335093,-0.151738,0.202033,17917780124343,0,0.687744,-2.75098
17917780246193,-0.0335093,-0.151738,0.202033,17917780207768,0,0.687744,-2.75098
17917780329470,-0.0335093,-0.151738,0.202033,17917780291026,0,0.687744,-2.75098
17917780412746,-0.0335093,-0.151738,0.202033,17917780374395,0,0.687744,-2.75098
17917780496152,-0.0335093,-0.151738,0.202033,17917780457727,0,0.687744,-2.75098
17917780579540,-0.0335093,-0.151738,0.202033,17917780541096,0,0.687744,-2.75098
17917780662816,-0.0335093,-0.151738,0.202033,17917780624428,0,0.687744,-2.75098
17917780746093,-0.0335093,-0.151738,0.202033,17917780707742,0,0.687744,-2.75098
17917780829425,-0.0335093,-0.151738,0.202033,17917780790963,0,0.687744,-2.75098
17917780912738,-0.0335093,-0.151738,0.202033,17917780874369,0,0.687744,-2.75098
17917780995959,-0.0335093,-0.151738,0.202033,17917780957571,0,0.687744,-2.75098
17917781079291,-0.0335093,-0.151738,0.202033,17917781040848,0,0.687744,-2.75098
17917781162679,-0.0335093,-0.151738,0.202033,17917781124235,0,0.687744,-2.75098
17917781246011,-0.0335093,-0.151738,0.202033,17917781207586,0,0.687744,-2.75098
17917781329343,-0.0335093,-0.151738,0.202033,17917781290899,0,0.687744,-2.75098
17917781412620,-0.0335093,-0.151738,0.202033,17917781374194,0,0.687744,-2.75098
17917781495915,-0.0335093,-0.151738,0.202033,17917781457582,0,0.687744,-2.75098
17917781579154,-0.0335093,-0.151738,0.202033,17917781540803,0,0.687744,-2.75098
17917781832224,-0.0335093,-0.151738,0.202033,17917781793280,0,0.687744,-2.75098
17917781916038,-0.0335093,-0.151738,0.202033,17917781877631,0,0.687744,-2.75098
17917781999573,-0.0335093,-0.151738,0.202033,17917781961204,0,0.687744,-2.75098
17917782082998,-0.0335093,-0.151738,0.202033,17917782044573,0,0.687744,-2.75098
17917782166423,-0.0335093,-0.151738,0.202033,17917782128016,0,0.687744,-2.75098
17917782250088,-0.0335093,-0.151738,0.202033,17917782211663,0,0.687744,-2.75098
17917782333698,-0.0335093,-0.151738,0.202033,17917782295198,0,0.687744,-2.75098
17917782417234,-0.0335093,-0.151738,0.202033,17917782378790,0,0.687744,-2.75098
17917782500621,-0.0335093,-0.151738,0.202033,17917782462270,0,0.687744,-2.75098
17917782584194,-0.0335093,-0.151738,0.202033,17917782545769,0,0.687744,-2.75098
17917782667711,-0.0335093,-0.151738,0.202033,17917782629267,0,0.687744,-2.75098
17917782751117,-0.0335093,-0.151738,0.202033,17917782712766,0,0.687744,-2.75098
17917782834634,-0.0335093,-0.151738,0.202033,17917782796228,0,0.687744,-2.75098
17917782918133,-0.0335093,-0.151738,0.202033,17917782879689,0,0.687744,-2.75098
17917783002076,-0.0335093,-0.151738,0.202033,17917782963355,0,0.687744,-2.75098
17917783085538,-0.0335093,-0.151738,0.202033,17917783047131,0,0.687744,-2.75098
17917783169037,-0.0335093,-0.151738,0.202033,17917783130630,0,0.687744,-2.75098
17917783252517,-0.0335093,-0.151738,0.202033,17917783214110,0,0.687744,-2.75098
17917783336034,-0.0335093,-0.151738,0.202033,17917783297664,0,0.687744,-2.75098
17917783419422,-0.0335093,-0.151738,0.202033,17917783381015,0,0.687744,-2.75098
17917783502828,-0.0335093,-0.151738,0.202033,17917783464439,0,0.687744,-2.75098
17917783586326,-0.0335093,-0.151738,0.202033,17917783547883,0,0.687744,-2.75098
17917783669936,-0.0335093,-0.151738,0.202033,17917783631492,0,0.687744,-2.75098
17917783753416,-0.0335093,-0.151738,0.202033,17917783715047,0,0.687744,-2.75098
17917783837008,-0.0335093,-0.151738,0.202033,17917783798601,0,0.687744,-2.75098
17917783920840,-0.0335093,-0.151738,0.202033,17917783882396,0,0.687744,-2.75098
17917784018135,-0.0335093,0.031373,0.324107,17917783966006,0,0.687744,-2.75098
17917784114818,-0.0335093,0.031373,0.324107,17917784075856,0,0.687744,-2.75098
17917784198724,-0.0335093,0.031373,0.324107,17917784160299,0,0.687744,-2.75098
17917784282242,-0.0335093,0.031373,0.324107,17917784243872,0,0.687744,-2.75098
17917784365870,-0.0335093,0.031373,0.324107,17917784327426,0,0.687744,-2.75098
17917784449239,-0.0335093,0.031373,0.324107,17917784410832,0,0.687744,-2.75098
17917784532738,-0.0335093,0.031373,0.324107,17917784494238,0,0.687744,-2.75098
17917784616255,-0.0335093,0.031373,0.324107,17917784577829,0,0.687744,-2.75098
17917784699531,-0.0335093,0.031373,0.324107,17917784661162,0,0.687744,-2.75098
17917784782956,-0.0335093,0.031373,0.324107,17917784744568,0,0.687744,-2.75098
17917784866584,-0.0335093,0.031373,0.324107,17917784828196,0,0.687744,-2.75098
17917784950157,-0.0335093,0.031373,0.324107,17917784911769,0,0.687744,-2.75098
17917785033563,-0.0335093,0.031373,0.324107,17917784995119,0,0.687744,-2.75098
17917785117080,-0.0335093,0.031373,0.324107,17917785078674,0,0.687744,-2.75098
17917785200542,-0.0335093,0.031373,0.324107,17917785162117,0,0.687744,-2.75098
17917785284096,-0.0335093,0.031373,0.324107,17917785245634,0,0.687744,-2.75098
17917785367576,-0.0335093,0.031373,0.324107,17917785329170,0,0.687744,-2.75098
17917785451075,-0.0335093,0.031373,0.324107,17917785412502,0,0.687744,-2.75098
17917785534352,-0.0335093,0.031373,0.324107,17917785496000,0,0.687744,-2.75098
17917785617758,-0.0335093,0.031373,0.324107,17917785579369,0,0.687744,-2.75098
17917785701331,-0.0335093,0.031373,0.324107,17917785662868,0,0.687744,-2.75098
17917785784792,-0.0335093,0.031373,0.324107,17917785746348,0,0.687744,-2.75098
17917785868272,-0.0335093,0.031373,0.324107,17917785829829,0,0.687744,-2.75098
17917785951716,-0.0335093,0.031373,0.324107,17917785913309,0,0.687744,-2.75098
17917786035103,-0.0335093,0.031373,0.324107,17917785996770,0,0.687744,-2.75098
17917786118528,-0.0335093,0.031373,0.324107,17917786080102,0,0.687744,-2.75098
17917786201897,-0.0335093,0.031373,0.324107,17917786163509,0,0.687744,-2.75098
17917786285340,-0.0335093,0.031373,0.324107,17917786246915,0,0.687744,-2.75098
17917786368765,-0.0335093,0.031373,0.324107,17917786330358,0,0.687744,-2.75098
17917786452245,-0.0335093,0.031373,0.324107,17917786413801,0,0.687744,-2.75098
17917786535614,-0.0335093,0.031373,0.324107,17917786497170,0,0.687744,-2.75098
17917786619020,-0.0335093,0.031373,0.324107,17917786580576,0,0.687744,-2.75098
17917786702500,-0.0335093,0.031373,0.324107,17917786664130,0,0.687744,-2.75098
17917786785962,-0.0335093,0.031373,0.324107,17917786747481,0,0.687744,-2.75098
17917786869331,-0.0335093,0.031373,0.324107,17917786830906,0,0.687744,-2.75098
17917786952570,-0.0335093,0.031373,0.324107,17917786914219,0,0.687744,-2.75098
17917787035995,-0.0335093,0.031373,0.324107,17917786997570,0,0.687744,-2.75098
17917787119401,-0.0335093,0.031373,0.324107,17917787080939,0,0.687744,-2.75098
17917787202900,-0.0335093,0.031373,0.324107,17917787164456,0,0.687744,-2.75098
17917787286158,-0.0335093,0.031373,0.324107,17917787247806,0,0.687744,-2.75098
17917787369601,-0.0335093,0.031373,0.324107,17917787331138,0,0.687744,-2.75098
17917787453155,-0.0335093,0.031373,0.324107,17917787414748,0,0.687744,-2.75098
17917787536524,-0.0335093,0.031373,0.324107,17917787498080,0,0.687744,-2.75098
17917787619949,-0.0335093,0.031373,0.324107,17917787581505,0,0.687744,-2.75098
17917787703225,-0.0335093,0.031373,0.324107,17917787664800,0,0.687744,-2.75098
17917787786724,-0.0335093,0.031373,0.324107,17917787748188,0,0.687744,-2.75098
17917787870297,-0.0335093,0.031373,0.324107,17917787831927,0,0.687744,-2.75098
17917787953703,-0.0335093,0.031373,0.324107,17917787915296,0,0.687744,-2.75098
17917788050498,-0.0335093,0.031373,0.324107,17917787998684,0,0.687744,-2.75098
17917788150792,-0.0335093,0.031373,0.324107,17917788111293,0,0.687744,-2.75098
17917788234847,-0.0335093,0.031373,0.324107,17917788196144,0,0.687744,-2.75098
17917788318475,-0.0335093,0.031373,0.324107,17917788280068,0,0.687744,-2.75098
17917788401955,-0.0335093,0.031373,0.324107,17917788363548,0,0.687744,-2.75098
17917788485509,-0.0335093,0.031373,0.324107,17917788447084,0,0.687744,-2.75098
17917788569027,-0.0335093,0.031373,0.324107,17917788530638,0,0.687744,-2.75098
17917788652507,-0.0335093,0.031373,0.324107,17917788614081,0,0.687744,-2.75098
17917788735968,-0.0335093,0.031373,0.324107,17917788697562,0,0.687744,-2.75098
17917788819541,-0.0335093,0.031373,0.324107,17917788781116,0,0.687744,-2.75098
17917788903096,-0.0335093,0.031373,0.324107,17917788864615,0,0.687744,-2.75098
17917788986761,-0.0335093,0.031373,0.324107,17917788948336,0,0.687744,-2.75098
17917789070426,-0.0335093,0.031373,0.324107,17917789032001,0,0.687744,-2.75098
17917789153999,-0.0335093,0.031373,0.324107,17917789115592,0,0.687744,-2.75098
17917789237590,-0.0335093,0.031373,0.324107,17917789199165,0,0.687744,-2.75098
17917789321089,-0.0335093,0.031373,0.324107,17917789282664,0,0.687744,-2.75098
17917789404514,-0.0335093,0.031373,0.324107,17917789366125,0,0.687744,-2.75098
17917789488216,-0.0335093,0.031373,0.324107,17917789449828,0,0.687744,-2.75098
17917789571863,-0.0335093,0.031373,0.324107,17917789533475,0,0.687744,-2.75098
17917789655417,-0.0335093,0.031373,0.324107,17917789616973,0,0.687744,-2.75098
17917789738953,-0.0335093,0.031373,0.324107,17917789700528,0,0.687744,-2.75098
17917789822489,-0.0335093,0.031373,0.324107,17917789784082,0,0.687744,-2.75098
17917789906302,-0.0335093,0.031373,0.324107,17917789867914,0,0.687744,-2.75098
17917789989949,-0.0335093,0.031373,0.324107,17917789951579,0,0.687744,-2.75098
17917790073392,-0.0335093,0.031373,0.324107,17917790035004,0,0.687744,-2.75098
17917790156872,-0.0335093,0.031373,0.324107,17917790118447,0,0.687744,-2.75098
17917790240278,-0.0335093,0.031373,0.324107,17917790201816,0,0.687744,-2.75098
17917790324555,-0.0335093,0.031373,0.324107,17917790286167,0,0.687744,-2.75098
17917790408183,-0.0335093,0.031373,0.324107,17917790369702,0,0.687744,-2.75098
17917790695753,-0.0335093,0.031373,0.324107,17917790655253,0,0.687744,-2.75098
17917790784122,-0.0335093,0.031373,0.324107,17917790745678,0,0.687744,-2.75098
17917790867583,-0.0335093,0.031373,0.324107,17917790829103,0,0.687744,-2.75098
17917790950897,-0.0335093,0.031373,0.324107,17917790912490,0,0.687744,-2.75098
17917791034433,-0.0335093,0.031373,0.324107,17917790995989,0,0.687744,-2.75098
17917791117913,-0.0335093,0.031373,0.324107,17917791079488,0,0.687744,-2.75098
17917791201245,-0.0335093,0.031373,0.324107,17917791162820,0,0.687744,-2.75098
17917791284744,-0.0335093,0.031373,0.324107,17917791246337,0,0.687744,-2.75098
17917791368187,-0.0335093,0.031373,0.324107,17917791329743,0,0.687744,-2.75098
17917791452130,-0.0335093,0.031373,0.324107,17917791413668,0,0.687744,-2.75098
17917791535629,-0.0335093,0.031373,0.324107,17917791497129,0,0.687744,-2.75098
17917791618961,-0.0335093,0.031373,0.324107,17917791580591,0,0.687744,-2.75098
17917791702367,-0.0335093,0.031373,0.324107,17917791663923,0,0.687744,-2.75098
17917791785828,-0.0335093,0.031373,0.324107,17917791747385,0,0.687744,-2.75098
17917791869327,-0.0335093,0.031373,0.324107,17917791830902,0,0.687744,-2.75098
17917791952789,-0.0335093,0.031373,0.324107,17917791914363,0,0.687744,-2.75098
17917792052732,-0.0335093,0.031373,0.324107,17917791997788,0,0.687744,-2.75098
17917792147712,-0.0335093,0.031373,0.324107,17917792108249,0,0.687744,-2.75098
17917792231358,-0.0335093,0.031373,0.324107,17917792192915,0,0.687744,-2.75098
17917792314857,-0.0335093,0.031373,0.324107,17917792276432,0,0.687744,-2.75098
17917792398300,-0.0335093,0.031373,0.324107,17917792359912,0,0.687744,-2.75098
17917792481669,-0.0335093,0.031373,0.324107,17917792443226,0,0.687744,-2.75098
17917792565094,-0.0335093,0.031373,0.324107,17917792526595,0,0.687744,-2.75098
17917792648556,-0.0335093,0.031373,0.324107,17917792610093,0,0.687744,-2.75098
17917792731777,-0.0335093,0.031373,0.324107,17917792693351,0,0.687744,-2.75098
17917792815127,-0.0335093,0.031373,0.324107,17917792776702,0,0.687744,-2.75098
17917792898681,-0.0335093,0.031373,0.324107,17917792860182,0,0.687744,-2.75098
17917792982088,-0.0335093,0.031373,0.324107,17917792943681,0,0.687744,-2.75098
17917793065475,-0.0335093,0.031373,0.324107,17917793027031,0,0.687744,-2.75098
17917793148789,-0.0335093,0.031373,0.324107,17917793110345,0,0.687744,-2.75098
17917793232084,-0.0335093,0.031373,0.324107,17917793193640,0,0.687744,-2.75098
17917793315508,-0.0335093,0.031373,0.324107,17917793277083,0,0.687744,-2.75098
17917793398859,-0.0335093,0.031373,0.324107,17917793360452,0,0.687744,-2.75098
17917793482265,-0.0335093,0.031373,0.324107,17917793443766,0,0.687744,-2.75098
17917793565930,-0.0335093,0.031373,0.324107,17917793527524,0,0.687744,-2.75098
17917793649429,-0.0335093,0.031373,0.324107,17917793610948,0,0.687744,-2.75098
17917793732891,-0.0335093,0.031373,0.324107,17917793694465,0,0.687744,-2.75098
17917793816278,-0.0335093,0.031373,0.324107,17917793777853,0,0.687744,-2.75098
17917793899944,-0.0335093,0.031373,0.324107,17917793861389,0,0.687744,-2.75098
17917793983535,-0.0335093,0.153447,0.507218,17917793945128,0,0.687744,-2.75098
17917794066997,-0.0335093,0.153447,0.507218,17917794028553,0,0.687744,-2.75098
17917794150310,-0.0335093,0.153447,0.507218,17917794111903,0,0.687744,-2.75098
17917794233605,-0.0335093,0.153447,0.507218,17917794195161,0,0.687744,-2.75098
17917794316937,-0.0335093,0.153447,0.507218,17917794278567,0,0.687744,-2.75098
17917794400362,-0.0335093,0.153447,0.507218,17917794361973,0,0.687744,-2.75098
17917794483768,-0.0335093,0.153447,0.507218,17917794445287,0,0.687744,-2.75098
17917794567044,-0.0335093,0.153447,0.507218,17917794528563,0,0.687744,-2.75098
17917794650506,-0.0335093,0.153447,0.507218,17917794612007,0,0.687744,-2.75098
17917794733801,-0.0335093,0.153447,0.507218,17917794695357,0,0.687744,-2.75098
17917794817300,-0.0335093,0.153447,0.507218,17917794778911,0,0.687744,-2.75098
17917794900595,-0.0335093,0.153447,0.507218,17917794862132,0,0.687744,-2.75098
17917794983890,-0.0335093,0.153447,0.507218,17917794945427,0,0.687744,-2.75098
17917795067203,-0.0335093,0.153447,0.507218,17917795028685,0,0.687744,-2.75098
17917795150757,-0.0335093,0.153447,0.507218,17917795112351,0,0.687744,-2.75098
17917795234164,-0.0335093,0.153447,0.507218,17917795195738,0,0.687744,-2.75098
17917795317551,-0.0335093,0.153447,0.507218,17917795279107,0,0.687744,-2.75098
17917795400865,-0.0335093,0.153447,0.507218,17917795362439,0,0.687744,-2.75098
17917795484160,-0.0335093,0.153447,0.507218,17917795445734,0,0.687744,-2.75098
17917795567418,-0.0335093,0.153447,0.507218,17917795529029,0,0.687744,-2.75098
17917795650879,-0.0335093,0.153447,0.507218,17917795612454,0,0.687744,-2.75098
17917795734322,-0.0335093,0.153447,0.507218,17917795695934,0,0.687744,-2.75098
17917795817636,-0.0335093,0.153447,0.507218,17917795779174,0,0.687744,-2.75098
17917795900912,-0.0335093,0.153447,0.507218,17917795862432,0,0.687744,-2.75098
17917795984226,-0.0335093,0.153447,0.507218,17917795945801,0,0.687744,-2.75098
17917796090373,-0.0335093,0.153447,0.507218,17917796050743,0,0.687744,-2.75098
17917796187241,-0.0335093,0.153447,0.507218,17917796148853,0,0.687744,-2.75098
17917796270703,-0.0335093,0.153447,0.507218,17917796232259,0,0.687744,-2.75098
17917796354276,-0.0335093,0.153447,0.507218,17917796315832,0,0.687744,-2.75098
17917796437830,-0.0335093,0.153447,0.507218,17917796399275,0,0.687744,-2.75098
17917796521255,-0.0335093,0.153447,0.507218,17917796482885,0,0.687744,-2.75098
17917796604790,-0.0335093,0.153447,0.507218,17917796566347,0,0.687744,-2.75098
17917796688382,-0.0335093,0.153447,0.507218,17917796649956,0,0.687744,-2.75098
17917796771862,-0.0335093,0.153447,0.507218,17917796733418,0,0.687744,-2.75098
17917796855453,-0.0335093,0.153447,0.507218,17917796816991,0,0.687744,-2.75098
17917796939044,-0.0335093,0.153447,0.507218,17917796900619,0,0.687744,-2.75098
17917797022728,-0.0335093,0.153447,0.507218,17917796984247,0,0.687744,-2.75098
17917797106190,-0.0335093,0.153447,0.507218,17917797067802,0,0.687744,-2.75098
17917797189726,-0.0335093,0.153447,0.507218,17917797151282,0,0.687744,-2.75098
17917797273206,-0.0335093,0.153447,0.507218,17917797234799,0,0.687744,-2.75098
17917797356797,-0.0335093,0.153447,0.507218,17917797318279,0,0.687744,-2.75098
17917797440203,-0.0335093,0.153447,0.507218,17917797401759,0,0.687744,-2.75098
17917797523554,-0.0335093,0.153447,0.507218,17917797485054,0,0.687744,-2.75098
17917797607071,-0.0335093,0.153447,0.507218,17917797568664,0,0.687744,-2.75098
17917797690422,-0.0335093,0.153447,0.507218,17917797651996,0,0.687744,-2.75098
17917797773754,-0.0335093,0.153447,0.507218,17917797735310,0,0.687744,-2.75098
17917797857234,-0.0335093,0.153447,0.507218,17917797818772,0,0.687744,-2.75098
17917797940955,-0.0335093,0.153447,0.507218,17917797902492,0,0.687744,-2.75098
17917798024379,-0.0335093,0.153447,0.507218,17917797985973,0,0.687744,-2.75098
17917798107934,-0.0335093,0.153447,0.507218,17917798069471,0,0.687744,-2.75098
17917798191581,-0.0335093,0.153447,0.507218,17917798153137,0,0.687744,-2.75098
17917798275153,-0.0335093,0.153447,0.507218,17917798236617,0,0.687744,-2.75098
17917798358596,-0.0335093,0.153447,0.507218,17917798320171,0,0.687744,-2.75098
17917798442132,-0.0335093,0.153447,0.507218,17917798403707,0,0.687744,-2.75098
17917798525557,-0.0335093,0.153447,0.507218,17917798487131,0,0.687744,-2.75098
17917798609056,-0.0335093,0.153447,0.507218,17917798570630,0,0.687744,-2.75098
17917798692536,-0.0335093,0.153447,0.507218,17917798654110,0,0.687744,-2.75098
17917798776016,-0.0335093,0.153447,0.507218,17917798737609,0,0.687744,-2.75098
17917798859496,-0.0335093,0.153447,0.507218,17917798821071,0,0.687744,-2.75098
17917798943032,-0.0335093,0.153447,0.507218,17917798904588,0,0.687744,-2.75098
17917799026401,-0.0335093,0.153447,0.507218,17917798987920,0,0.687744,-2.75098
17917799109770,-0.0335093,0.153447,0.507218,17917799071345,0,0.687744,-2.75098
17917799193065,-0.0335093,0.153447,0.507218,17917799154695,0,0.687744,-2.75098
17917799276582,-0.0335093,0.153447,0.507218,17917799238175,0,0.687744,-2.75098
17917799360044,-0.0335093,0.153447,0.507218,17917799321618,0,0.687744,-2.75098
17917799640632,-0.0335093,0.153447,0.507218,17917799599762,0,0.687744,-2.75098
17917799725483,-0.0335093,0.153447,0.507218,17917799687002,0,0.687744,-2.75098
17917799809463,-0.0335093,0.153447,0.507218,17917799770760,0,0.687744,-2.75098
17917799893017,-0.0335093,0.153447,0.507218,17917799854629,0,0.687744,-2.75098
17917799976312,-0.0335093,0.153447,0.507218,17917799937905,0,0.687744,-2.75098
17917800074885,-0.0335093,0.153447,0.507218,17917800034367,0,0.687744,-2.75098
17917800169846,-0.0335093,0.153447,0.507218,17917800131439,0,0.687744,-2.75098
17917800253345,-0.0335093,0.153447,0.507218,17917800214938,0,0.687744,-2.75098
17917800336603,-0.0335093,0.153447,0.507218,17917800298214,0,0.687744,-2.75098
17917800419898,-0.0335093,0.153447,0.507218,17917800381435,0,0.687744,-2.75098
17917800503267,-0.0335093,0.153447,0.507218,17917800464823,0,0.687744,-2.75098
17917800586728,-0.0335093,0.153447,0.507218,17917800548192,0,0.687744,-2.75098
17917800670079,-0.0335093,0.153447,0.507218,17917800631654,0,0.687744,-2.75098
17917800753430,-0.0335093,0.153447,0.507218,17917800715023,0,0.687744,-2.75098
17917800836854,-0.0335093,0.153447,0.507218,17917800798410,0,0.687744,-2.75098
17917800920260,-0.0335093,0.153447,0.507218,17917800881853,0,0.687744,-2.75098
17917801003611,-0.0335093,0.153447,0.507218,17917800965186,0,0.687744,-2.75098
17917801086980,-0.0335093,0.153447,0.507218,17917801048629,0,0.687744,-2.75098
17917801170386,-0.0335093,0.153447,0.507218,17917801131924,0,0.687744,-2.75098
17917801253718,-0.0335093,0.153447,0.507218,17917801215293,0,0.687744,-2.75098
17917801337032,-0.0335093,0.153447,0.507218,17917801298625,0,0.687744,-2.75098
17917801420382,-0.0335093,0.153447,0.507218,17917801381938,0,0.687744,-2.75098
17917801503788,-0.0335093,0.153447,0.507218,17917801465418,0,0.687744,-2.75098
17917801587176,-0.0335093,0.153447,0.507218,17917801548750,0,0.687744,-2.75098
17917801670600,-0.0335093,0.153447,0.507218,17917801632212,0,0.687744,-2.75098
17917801753932,-0.0335093,0.153447,0.507218,17917801715600,0,0.687744,-2.75098
17917801837227,-0.0335093,0.153447,0.507218,17917801798821,0,0.687744,-2.75098
17917801920652,-0.0335093,0.153447,0.507218,17917801882301,0,0.687744,-2.75098
17917802004243,-0.0335093,0.153447,0.507218,17917801965818,0,0.687744,-2.75098
17917802087575,-0.0335093,0.153447,0.507218,17917802049169,0,0.687744,-2.75098
17917802170945,-0.0335093,0.153447,0.507218,17917802132501,0,0.687744,-2.75098
17917802254202,-0.0335093,0.153447,0.507218,17917802215796,0,0.687744,-2.75098
17917802337460,-0.0335093,0.153447,0.507218,17917802299017,0,0.687744,-2.75098
17917802420663,-0.0335093,0.153447,0.507218,17917802382293,0,0.687744,-2.75098
17917802504125,-0.0335093,0.153447,0.507218,17917802465736,0,0.687744,-2.75098
17917802587586,-0.0335093,0.153447,0.507218,17917802549105,0,0.687744,-2.75098
17917802670955,-0.0335093,0.153447,0.507218,17917802632437,0,0.687744,-2.75098
17917802754510,-0.0335093,0.153447,0.507218,17917802716103,0,0.687744,-2.75098
17917802837656,-0.0335093,0.153447,0.507218,17917802799324,0,0.687744,-2.75098
17917802920840,-0.0335093,0.153447,0.507218,17917802882470,0,0.687744,-2.75098
17917803004080,-0.0335093,0.153447,0.507218,17917802965654,0,0.687744,-2.75098
17917803087504,-0.0335093,0.153447,0.507218,17917803049098,0,0.687744,-2.75098
17917803170781,-0.0335093,0.153447,0.507218,17917803132355,0,0.687744,-2.75098
17917803254057,-0.0335093,0.153447,0.507218,17917803215613,0,0.687744,-2.75098
17917803337260,-0.0335093,0.153447,0.507218,17917803298834,0,0.687744,-2.75098
17917803420518,-0.0335093,0.153447,0.507218,17917803382074,0,0.687744,-2.75098
17917803503702,-0.0335093,0.153447,0.507218,17917803465332,0,0.687744,-2.75098
17917803586960,-0.0335093,0.153447,0.507218,17917803548516,0,0.687744,-2.75098
17917803670217,-0.0335093,0.153447,0.507218,17917803631792,0,0.687744,-2.75098
17917803753735,-0.0335093,0.153447,0.507218,17917803715309,0,0.687744,-2.75098
17917803836993,-0.0335093,0.153447,0.507218,17917803798604,0,0.687744,-2.75098
17917803920325,-0.0335093,0.153447,0.507218,17917803881899,0,0.687744,-2.75098
17917804022953,-0.0335093,0.031373,0.324107,17917803965157,0,0.687744,-2.75098
17917804122451,-0.0335093,0.031373,0.324107,17917804082915,0,0.687744,-2.75098
17917804206061,-0.0335093,0.031373,0.324107,17917804167599,0,0.687744,-2.75098
17917804289430,-0.0335093,0.031373,0.324107,17917804251079,0,0.687744,-2.75098
17917804372855,-0.0335093,0.031373,0.324107,17917804334485,0,0.687744,-2.75098
17917804456464,-0.0335093,0.031373,0.324107,17917804418039,0,0.687744,-2.75098
17917804539797,-0.0335093,0.031373,0.324107,17917804501408,0,0.687744,-2.75098
17917804623129,-0.0335093,0.031373,0.324107,17917804584759,0,0.687744,-2.75098
17917804706572,-0.0335093,0.031373,0.324107,17917804668128,0,0.687744,-2.75098
17917804789941,-0.0335093,0.031373,0.324107,17917804751515,0,0.687744,-2.75098
17917804873254,-0.0335093,0.031373,0.324107,17917804834885,0,0.687744,-2.75098
17917804956642,-0.0335093,0.031373,0.324107,17917804918254,0,0.687744,-2.75098
17917805040085,-0.0335093,0.031373,0.324107,17917805001586,0,0.687744,-2.75098
17917805123713,-0.0335093,0.031373,0.324107,17917805085103,0,0.687744,-2.75098
17917805207175,-0.0335093,0.031373,0.324107,17917805168750,0,0.687744,-2.75098
17917805290563,-0.0335093,0.031373,0.324107,17917805252100,0,0.687744,-2.75098
17917805374209,-0.0335093,0.031373,0.324107,17917805335692,0,0.687744,-2.75098
17917805457542,-0.0335093,0.031373,0.324107,17917805419116,0,0.687744,-2.75098
17917805540929,-0.0335093,0.031373,0.324107,17917805502467,0,0.687744,-2.75098
17917805624372,-0.0335093,0.031373,0.324107,17917805585965,0,0.687744,-2.75098
17917805707797,-0.0335093,0.031373,0.324107,17917805669372,0,0.687744,-2.75098
17917805791333,-0.0335093,0.031373,0.324107,17917805752907,0,0.687744,-2.75098
17917805875054,-0.0335093,0.031373,0.324107,17917805836573,0,0.687744,-2.75098
17917805958460,-0.0335093,0.031373,0.324107,17917805920016,0,0.687744,-2.75098
17917806041847,-0.0335093,0.031373,0.324107,17917806003403,0,0.687744,-2.75098
17917806125698,-0.0335093,0.031373,0.324107,17917806087272,0,0.687744,-2.75098
17917806209048,-0.0335093,0.031373,0.324107,17917806170604,0,0.687744,-2.75098
17917806292362,-0.0335093,0.031373,0.324107,17917806253955,0,0.687744,-2.75098
17917806375620,-0.0335093,0.031373,0.324107,17917806337213,0,0.687744,-2.75098
17917806458933,-0.0335093,0.031373,0.324107,17917806420527,0,0.687744,-2.75098
17917806542265,-0.0335093,0.031373,0.324107,17917806503822,0,0.687744,-2.75098
17917806625949,-0.0335093,0.031373,0.324107,17917806587524,0,0.687744,-2.75098
17917806709374,-0.0335093,0.031373,0.324107,17917806670967,0,0.687744,-2.75098
17917806792706,-0.0335093,0.031373,0.324107,17917806754318,0,0.687744,-2.75098
17917806875945,-0.0335093,0.031373,0.324107,17917806837539,0,0.687744,-2.75098
17917806959259,-0.0335093,0.031373,0.324107,17917806920834,0,0.687744,-2.75098
17917807042517,-0.0335093,0.031373,0.324107,17917807004147,0,0.687744,-2.75098
17917807125904,-0.0335093,0.031373,0.324107,17917807087535,0,0.687744,-2.75098
17917807209107,-0.0335093,0.031373,0.324107,17917807170737,0,0.687744,-2.75098
17917807292420,-0.0335093,0.031373,0.324107,17917807253958,0,0.687744,-2.75098
17917807375678,-0.0335093,0.031373,0.324107,17917807337234,0,0.687744,-2.75098
17917807459103,-0.0335093,0.031373,0.324107,17917807420585,0,0.687744,-2.75098
17917807542305,-0.0335093,0.031373,0.324107,17917807503936,0,0.687744,-2.75098
17917807625600,-0.0335093,0.031373,0.324107,17917807587212,0,0.687744,-2.75098
17917807709025,-0.0335093,0.031373,0.324107,17917807670581,0,0.687744,-2.75098
17917807792357,-0.0335093,0.031373,0.324107,17917807753950,0,0.687744,-2.75098
17917807875541,-0.0335093,0.031373,0.324107,17917807837153,0,0.687744,-2.75098
17917807958706,-0.0335093,0.031373,0.324107,17917807920355,0,0.687744,-2.75098
17917808070242,-0.0335093,0.031373,0.324107,17917808028964,0,0.687744,-2.75098
17917808170499,-0.0335093,0.031373,0.324107,17917808132092,0,0.687744,-2.75098
17917808254202,-0.0335093,0.031373,0.324107,17917808215850,0,0.687744,-2.75098
17917808337682,-0.0335093,0.031373,0.324107,17917808299312,0,0.687744,-2.75098
17917808604622,-0.0335093,0.031373,0.324107,17917808565012,0,0.687744,-2.75098
17917808688676,-0.0335093,0.031373,0.324107,17917808650214,0,0.687744,-2.75098
17917808772712,-0.0335093,0.031373,0.324107,17917808734120,0,0.687744,-2.75098
17917808856544,-0.0335093,0.031373,0.324107,17917808818082,0,0.687744,-2.75098
17917808940154,-0.0335093,0.031373,0.324107,17917808901766,0,0.687744,-2.75098
17917809023764,-0.0335093,0.031373,0.324107,17917808985264,0,0.687744,-2.75098
17917809107244,-0.0335093,0.031373,0.324107,17917809068837,0,0.687744,-2.75098
17917809190687,-0.0335093,0.031373,0.324107,17917809152299,0,0.687744,-2.75098
17917809274389,-0.0335093,0.031373,0.324107,17917809235983,0,0.687744,-2.75098
17917809358314,-0.0335093,0.031373,0.324107,17917809319704,0,0.687744,-2.75098
17917809441665,-0.0335093,0.031373,0.324107,17917809403276,0,0.687744,-2.75098
17917809525071,-0.0335093,0.031373,0.324107,17917809486701,0,0.687744,-2.75098
17917809608421,-0.0335093,0.031373,0.324107,17917809570052,0,0.687744,-2.75098
17917809691957,-0.0335093,0.031373,0.324107,17917809653532,0,0.687744,-2.75098
17917809775622,-0.0335093,0.031373,0.324107,17917809737086,0,0.687744,-2.75098
17917809859121,-0.0335093,0.031373,0.324107,17917809820677,0,0.687744,-2.75098
17917809942638,-0.0335093,0.031373,0.324107,17917809904213,0,0.687744,-2.75098
17917810026415,-0.0335093,0.031373,0.324107,17917809987952,0,0.687744,-2.75098
17917810110339,-0.0335093,0.031373,0.324107,17917810071933,0,0.687744,-2.75098
17917810193912,-0.0335093,0.031373,0.324107,17917810155524,0,0.687744,-2.75098
17917810277429,-0.0335093,0.031373,0.324107,17917810239023,0,0.687744,-2.75098
17917810361261,-0.0335093,0.031373,0.324107,17917810322818,0,0.687744,-2.75098
17917810445334,-0.0335093,0.031373,0.324107,17917810406946,0,0.687744,-2.75098
17917810529111,-0.0335093,0.031373,0.324107,17917810490648,0,0.687744,-2.75098
17917810612702,-0.0335093,0.031373,0.324107,17917810574351,0,0.687744,-2.75098
17917810696330,-0.0335093,0.031373,0.324107,17917810657868,0,0.687744,-2.75098
17917810779885,-0.0335093,0.031373,0.324107,17917810741441,0,0.687744,-2.75098
17917810866254,-0.0335093,0.031373,0.324107,17917810826810,0,0.687744,-2.75098
17917810956604,-0.0335093,0.031373,0.324107,17917810918197,0,0.687744,-2.75098
17917811040121,-0.0335093,0.031373,0.324107,17917811001714,0,0.687744,-2.75098
17917811123601,-0.0335093,0.031373,0.324107,17917811085139,0,0.687744,-2.75098
17917811207415,-0.0335093,0.031373,0.324107,17917811168990,0,0.687744,-2.75098
17917811290988,-0.0335093,0.031373,0.324107,17917811252525,0,0.687744,-2.75098
17917811374431,-0.0335093,0.031373,0.324107,17917811336080,0,0.687744,-2.75098
17917811457930,-0.0335093,0.031373,0.324107,17917811419449,0,0.687744,-2.75098
17917811541447,-0.0335093,0.031373,0.324107,17917811503003,0,0.687744,-2.75098
17917811624964,-0.0335093,0.031373,0.324107,17917811586539,0,0.687744,-2.75098
17917811708259,-0.0335093,0.031373,0.324107,17917811669852,0,0.687744,-2.75098
17917811791961,-0.0335093,0.031373,0.324107,17917811753518,0,0.687744,-2.75098
17917811875423,-0.0335093,0.031373,0.324107,17917811837016,0,0.687744,-2.75098
17917811959255,-0.0335093,0.031373,0.324107,17917811920626,0,0.687744,-2.75098
17917812060013,-0.0335093,0.031373,0.324107,17917812020050,0,0.687744,-2.75098
17917812153567,-0.0335093,0.031373,0.324107,17917812115160,0,0.687744,-2.75098
17917812237177,-0.0335093,0.031373,0.324107,17917812198733,0,0.687744,-2.75098
17917812320787,-0.0335093,0.031373,0.324107,17917812282343,0,0.687744,-2.75098
17917812404563,-0.0335093,0.031373,0.324107,17917812366156,0,0.687744,-2.75098
17917812488302,-0.0335093,0.031373,0.324107,17917812449840,0,0.687744,-2.75098
17917812571949,-0.0335093,0.031373,0.324107,17917812533357,0,0.687744,-2.75098
17917812655689,-0.0335093,0.031373,0.324107,17917812617097,0,0.687744,-2.75098
17917812739169,-0.0335093,0.031373,0.324107,17917812700725,0,0.687744,-2.75098
17917812822612,-0.0335093,0.031373,0.324107,17917812784205,0,0.687744,-2.75098
17917812906166,-0.0335093,0.031373,0.324107,17917812867685,0,0.687744,-2.75098
17917812989684,-0.0335093,0.031373,0.324107,17917812951258,0,0.687744,-2.75098
17917813073293,-0.0335093,0.031373,0.324107,17917813034849,0,0.687744,-2.75098
17917813156922,-0.0335093,0.031373,0.324107,17917813118478,0,0.687744,-2.75098
17917813240606,-0.0335093,0.031373,0.324107,17917813202199,0,0.687744,-2.75098
17917813324215,-0.0335093,0.031373,0.324107,17917813285790,0,0.687744,-2.75098
17917813407696,-0.0335093,0.031373,0.324107,17917813369289,0,0.687744,-2.75098
17917813491268,-0.0335093,0.031373,0.324107,17917813452824,0,0.687744,-2.75098
17917813574693,-0.0335093,0.031373,0.324107,17917813536342,0,0.687744,-2.75098
17917813658247,-0.0335093,0.031373,0.324107,17917813619840,0,0.687744,-2.75098
17917813742042,-0.0335093,0.031373,0.324107,17917813703598,0,0.687744,-2.75098
17917813825689,-0.0335093,0.031373,0.324107,17917813787264,0,0.687744,-2.75098
17917813909095,-0.0335093,0.031373,0.324107,17917813870707,0,0.687744,-2.75098
17917813992464,-0.0335093,0.031373,0.324107,17917813954020,0,0.687744,-2.75098
17917814075981,-0.0335093,0.09241,0.202033,17917814037538,0,0.687744,-2.75098
17917814159869,-0.0335093,0.09241,0.202033,17917814121407,0,0.687744,-2.75098
17917814243608,-0.0335093,0.09241,0.202033,17917814205128,0,0.687744,-2.75098
17917814327348,-0.0335093,0.09241,0.202033,17917814288904,0,0.687744,-2.75098
17917814410939,-0.0335093,0.09241,0.202033,17917814372477,0,0.687744,-2.75098
17917814495419,-0.0335093,0.09241,0.202033,17917814456457,0,0.687744,-2.75098
17917814578918,-0.0335093,0.09241,0.202033,17917814540511,0,0.687744,-2.75098
17917814662528,-0.0335093,0.09241,0.202033,17917814624028,0,0.687744,-2.75098
17917814746323,-0.0335093,0.09241,0.202033,17917814707898,0,0.687744,-2.75098
17917814829970,-0.0335093,0.09241,0.202033,17917814791507,0,0.687744,-2.75098
17917814913431,-0.0335093,0.09241,0.202033,17917814875025,0,0.687744,-2.75098
17917814996949,-0.0335093,0.09241,0.202033,17917814958523,0,0.687744,-2.75098
17917815080392,-0.0335093,0.09241,0.202033,17917815042003,0,0.687744,-2.75098
17917815163835,-0.0335093,0.09241,0.202033,17917815125428,0,0.687744,-2.75098
17917815247259,-0.0335093,0.09241,0.202033,17917815208871,0,0.687744,-2.75098
17917815330647,-0.0335093,0.09241,0.202033,17917815292296,0,0.687744,-2.75098
17917815414146,-0.0335093,0.09241,0.202033,17917815375683,0,0.687744,-2.75098
17917815497700,-0.0335093,0.09241,0.202033,17917815459275,0,0.687744,-2.75098
17917815581162,-0.0335093,0.09241,0.202033,17917815542718,0,0.687744,-2.75098
17917815664642,-0.0335093,0.09241,0.202033,17917815626198,0,0.687744,-2.75098
17917815748141,-0.0335093,0.09241,0.202033,17917815709715,0,0.687744,-2.75098
17917815831547,-0.0335093,0.09241,0.202033,17917815793140,0,0.687744,-2.75098
17917815914971,-0.0335093,0.09241,0.202033,17917815876527,0,0.687744,-2.75098
17917815998359,-0.0335093,0.09241,0.202033,17917815959971,0,0.687744,-2.75098
17917816131653,-0.0335093,0.09241,0.202033,17917816092043,0,0.687744,-2.75098
17917816215985,-0.0335093,0.09241,0.202033,17917816177541,0,0.687744,-2.75098
17917816299373,-0.0335093,0.09241,0.202033,17917816260929,0,0.687744,-2.75098
17917816382779,-0.0335093,0.09241,0.202033,17917816344391,0,0.687744,-2.75098
17917816466241,-0.0335093,0.09241,0.202033,17917816427834,0,0.687744,-2.75098
17917816549702,-0.0335093,0.09241,0.202033,17917816511314,0,0.687744,-2.75098
17917816633164,-0.0335093,0.09241,0.202033,17917816594720,0,0.687744,-2.75098
17917816716663,-0.0335093,0.09241,0.202033,17917816678256,0,0.687744,-2.75098
17917816800124,-0.0335093,0.09241,0.202033,17917816761699,0,0.687744,-2.75098
17917816883549,-0.0335093,0.09241,0.202033,17917816845161,0,0.687744,-2.75098
17917816966955,-0.0335093,0.09241,0.202033,17917816928567,0,0.687744,-2.75098
17917817050380,-0.0335093,0.09241,0.202033,17917817011991,0,0.687744,-2.75098
17917817133823,-0.0335093,0.09241,0.202033,17917817095434,0,0.687744,-2.75098
17917817217784,-0.0335093,0.09241,0.202033,17917817179378,0,0.687744,-2.75098
17917817301283,-0.0335093,0.09241,0.202033,17917817262839,0,0.687744,-2.75098
17917817549464,-0.0335093,0.09241,0.202033,17917817510261,0,0.687744,-2.75098
17917817633926,-0.0335093,0.09241,0.202033,17917817595519,0,0.687744,-2.75098
17917817717443,-0.0335093,0.09241,0.202033,17917817679073,0,0.687744,-2.75098
17917817800960,-0.0335093,0.09241,0.202033,17917817762554,0,0.687744,-2.75098
17917817884385,-0.0335093,0.09241,0.202033,17917817845997,0,0.687744,-2.75098
17917817967773,-0.0335093,0.09241,0.202033,17917817929384,0,0.687744,-2.75098
17917818051179,-0.0335093,0.09241,0.202033,17917818012772,0,0.687744,-2.75098
17917818134622,-0.0335093,0.09241,0.202033,17917818096197,0,0.687744,-2.75098
17917818218084,-0.0335093,0.09241,0.202033,17917818179677,0,0.687744,-2.75098
17917818301434,-0.0335093,0.09241,0.202033,17917818263046,0,0.687744,-2.75098
17917818384859,-0.0335093,0.09241,0.202033,17917818346471,0,0.687744,-2.75098
17917818468265,-0.0335093,0.09241,0.202033,17917818429877,0,0.687744,-2.75098
17917818551652,-0.0335093,0.09241,0.202033,17917818513283,0,0.687744,-2.75098
17917818635040,-0.0335093,0.09241,0.202033,17917818596652,0,0.687744,-2.75098
17917818718446,-0.0335093,0.09241,0.202033,17917818680076,0,0.687744,-2.75098
17917818801963,-0.0335093,0.09241,0.202033,17917818763557,0,0.687744,-2.75098
17917818885481,-0.0335093,0.09241,0.202033,17917818847074,0,0.687744,-2.75098
17917818969072,-0.0335093,0.09241,0.202033,17917818930684,0,0.687744,-2.75098
17917819052589,-0.0335093,0.09241,0.202033,17917819014164,0,0.687744,-2.75098
17917819136236,-0.0335093,0.09241,0.202033,17917819097792,0,0.687744,-2.75098
17917819230475,-0.0335093,0.09241,0.202033,17917819191772,0,0.687744,-2.75098
17917819316881,-0.0335093,0.09241,0.202033,17917819278419,0,0.687744,-2.75098
17917819400639,-0.0335093,0.09241,0.202033,17917819362195,0,0.687744,-2.75098
17917819484212,-0.0335093,0.09241,0.202033,17917819445750,0,0.687744,-2.75098
17917819568007,-0.0335093,0.09241,0.202033,17917819529563,0,0.687744,-2.75098
17917819651654,-0.0335093,0.09241,0.202033,17917819613192,0,0.687744,-2.75098
17917819735264,-0.0335093,0.09241,0.202033,17917819696912,0,0.687744,-2.75098
17917819818874,-0.0335093,0.09241,0.202033,17917819780430,0,0.687744,-2.75098
17917819902391,-0.0335093,0.09241,0.202033,17917819863947,0,0.687744,-2.75098
17917819986001,-0.0335093,0.09241,0.202033,17917819947594,0,0.687744,-2.75098
17917820092647,-0.0335093,0.09241,0.202033,17917820050407,0,0.687744,-2.75098
17917820192034,-0.0335093,0.09241,0.202033,17917820153257,0,0.687744,-2.75098
17917820275663,-0.0335093,0.09241,0.202033,17917820237311,0,0.687744,-2.75098
17917820359402,-0.0335093,0.09241,0.202033,17917820320736,0,0.687744,-2.75098
17917820442845,-0.0335093,0.09241,0.202033,17917820404494,0,0.687744,-2.75098
17917820526455,-0.0335093,0.09241,0.202033,17917820488122,0,0.687744,-2.75098
17917820609935,-0.0335093,0.09241,0.202033,17917820571547,0,0.687744,-2.75098
17917820693471,-0.0335093,0.09241,0.202033,17917820655046,0,0.687744,-2.75098
17917820776988,-0.0335093,0.09241,0.202033,17917820738526,0,0.687744,-2.75098
17917820860598,-0.0335093,0.09241,0.202033,17917820822117,0,0.687744,-2.75098
17917820944263,-0.0335093,0.09241,0.202033,17917820905820,0,0.687744,-2.75098
17917821027688,-0.0335093,0.09241,0.202033,17917820989281,0,0.687744,-2.75098
17917821111316,-0.0335093,0.09241,0.202033,17917821072891,0,0.687744,-2.75098
17917821194871,-0.0335093,0.09241,0.202033,17917821156445,0,0.687744,-2.75098
17917821278332,-0.0335093,0.09241,0.202033,17917821239907,0,0.687744,-2.75098
17917821361961,-0.0335093,0.09241,0.202033,17917821323517,0,0.687744,-2.75098
17917821445589,-0.0335093,0.09241,0.202033,17917821407145,0,0.687744,-2.75098
17917821529217,-0.0335093,0.09241,0.202033,17917821490792,0,0.687744,-2.75098
17917821612772,-0.0335093,0.09241,0.202033,17917821574346,0,0.687744,-2.75098
17917821696289,-0.0335093,0.09241,0.202033,17917821657900,0,0.687744,-2.75098
17917821779676,-0.0335093,0.09241,0.202033,17917821741251,0,0.687744,-2.75098
17917821863601,-0.0335093,0.09241,0.202033,17917821824824,0,0.687744,-2.75098
17917821947137,-0.0335093,0.09241,0.202033,17917821908674,0,0.687744,-2.75098
17917822030672,-0.0335093,0.09241,0.202033,17917821992247,0,0.687744,-2.75098
17917822114208,-0.0335093,0.09241,0.202033,17917822075820,0,0.687744,-2.75098
17917822197762,-0.0335093,0.09241,0.202033,17917822159300,0,0.687744,-2.75098
17917822281428,-0.0335093,0.09241,0.202033,17917822242817,0,0.687744,-2.75098
17917822364963,-0.0335093,0.09241,0.202033,17917822326520,0,0.687744,-2.75098
17917822448425,-0.0335093,0.09241,0.202033,17917822410037,0,0.687744,-2.75098
17917822531924,-0.0335093,0.09241,0.202033,17917822493480,0,0.687744,-2.75098
17917822615386,-0.0335093,0.09241,0.202033,17917822576997,0,0.687744,-2.75098
17917822698810,-0.0335093,0.09241,0.202033,17917822660385,0,0.687744,-2.75098
17917822782401,-0.0335093,0.09241,0.202033,17917822743846,0,0.687744,-2.75098
17917822865900,-0.0335093,0.09241,0.202033,17917822827438,0,0.687744,-2.75098
17917822949343,-0.0335093,0.09241,0.202033,17917822910936,0,0.687744,-2.75098
17917823032916,-0.0335093,0.09241,0.202033,17917822994417,0,0.687744,-2.75098
17917823116655,-0.0335093,0.09241,0.202033,17917823078045,0,0.687744,-2.75098
17917823200673,-0.0335093,0.09241,0.202033,17917823161988,0,0.687744,-2.75098
17917823284190,-0.0335093,0.09241,0.202033,17917823245746,0,0.687744,-2.75098
17917823367670,-0.0335093,0.09241,0.202033,17917823329263,0,0.687744,-2.75098
17917823451095,-0.0335093,0.09241,0.202033,17917823412688,0,0.687744,-2.75098
17917823534630,-0.0335093,0.09241,0.202033,17917823496187,0,0.687744,-2.75098
17917823618425,-0.0335093,0.09241,0.202033,17917823580000,0,0.687744,-2.75098
17917823702017,-0.0335093,0.09241,0.202033,17917823663591,0,0.687744,-2.75098
17917823785478,-0.0335093,0.09241,0.202033,17917823747072,0,0.687744,-2.75098
17917823868959,-0.0335093,0.09241,0.202033,17917823830533,0,0.687744,-2.75098
17917823952439,-0.0335093,0.09241,0.202033,17917823914013,0,0.687744,-2.75098
17917824048752,0.0275277,0.031373,-0.16419,17917823997623,0,0.687744,-2.75098
17917824145677,0.0275277,0.031373,-0.16419,17917824106844,0,0.687744,-2.75098
17917824229360,0.0275277,0.031373,-0.16419,17917824190935,0,0.687744,-2.75098
17917824312933,0.0275277,0.031373,-0.16419,17917824274563,0,0.687744,-2.75098
17917824396284,0.0275277,0.031373,-0.16419,17917824357840,0,0.687744,-2.75098
17917824479616,0.0275277,0.031373,-0.16419,17917824441209,0,0.687744,-2.75098
17917824563151,0.0275277,0.031373,-0.16419,17917824524634,0,0.687744,-2.75098
17917824646613,0.0275277,0.031373,-0.16419,17917824608169,0,0.687744,-2.75098
17917824730260,0.0275277,0.031373,-0.16419,17917824691853,0,0.687744,-2.75098
17917824813759,0.0275277,0.031373,-0.16419,17917824775278,0,0.687744,-2.75098
17917824897146,0.0275277,0.031373,-0.16419,17917824858702,0,0.687744,-2.75098
17917824980497,0.0275277,0.031373,-0.16419,17917824942127,0,0.687744,-2.75098
17917825064070,0.0275277,0.031373,-0.16419,17917825025626,0,0.687744,-2.75098
17917825151124,0.0275277,0.031373,-0.16419,17917825111439,0,0.687744,-2.75098
17917825240474,0.0275277,0.031373,-0.16419,17917825202030,0,0.687744,-2.75098
17917825324158,0.0275277,0.031373,-0.16419,17917825285659,0,0.687744,-2.75098
17917825407657,0.0275277,0.031373,-0.16419,17917825369157,0,0.687744,-2.75098
17917825491026,0.0275277,0.031373,-0.16419,17917825452601,0,0.687744,-2.75098
17917825574469,0.0275277,0.031373,-0.16419,17917825536007,0,0.687744,-2.75098
17917825657857,0.0275277,0.031373,-0.16419,17917825619413,0,0.687744,-2.75098
17917825741726,0.0275277,0.031373,-0.16419,17917825702949,0,0.687744,-2.75098
17917825825243,0.0275277,0.031373,-0.16419,17917825786818,0,0.687744,-2.75098
17917825908834,0.0275277,0.031373,-0.16419,17917825870353,0,0.687744,-2.75098
17917825992333,0.0275277,0.031373,-0.16419,17917825953908,0,0.687744,-2.75098
17917826075887,0.0275277,0.031373,-0.16419,17917826037443,0,0.687744,-2.75098
17917826159423,0.0275277,0.031373,-0.16419,17917826121016,0,0.687744,-2.75098
17917826243385,0.0275277,0.031373,-0.16419,17917826205052,0,0.687744,-2.75098
17917826326902,0.0275277,0.031373,-0.16419,17917826288495,0,0.687744,-2.75098
17917826619323,0.0275277,0.031373,-0.16419,17917826578194,0,0.687744,-2.75098
17917826704526,0.0275277,0.031373,-0.16419,17917826665971,0,0.687744,-2.75098
17917826788339,0.0275277,0.031373,-0.16419,17917826749821,0,0.687744,-2.75098
17917826872375,0.0275277,0.031373,-0.16419,17917826833783,0,0.687744,-2.75098
17917826955929,0.0275277,0.031373,-0.16419,17917826917448,0,0.687744,-2.75098
17917827039409,0.0275277,0.031373,-0.16419,17917827000984,0,0.687744,-2.75098
17917827123093,0.0275277,0.031373,-0.16419,17917827084557,0,0.687744,-2.75098
17917827206684,0.0275277,0.031373,-0.16419,17917827168278,0,0.687744,-2.75098
17917827290183,0.0275277,0.031373,-0.16419,17917827251721,0,0.687744,-2.75098
17917827373645,0.0275277,0.031373,-0.16419,17917827335275,0,0.687744,-2.75098
17917827457069,0.0275277,0.031373,-0.16419,17917827418663,0,0.687744,-2.75098
17917827540605,0.0275277,0.031373,-0.16419,17917827502124,0,0.687744,-2.75098
17917827624548,0.0275277,0.031373,-0.16419,17917827586141,0,0.687744,-2.75098
17917827708066,0.0275277,0.031373,-0.16419,17917827669585,0,0.687744,-2.75098
17917827791546,0.0275277,0.031373,-0.16419,17917827753176,0,0.687744,-2.75098
17917827874952,0.0275277,0.031373,-0.16419,17917827836564,0,0.687744,-2.75098
17917827958506,0.0275277,0.031373,-0.16419,17917827920099,0,0.687744,-2.75098
17917828062375,0.0275277,0.031373,-0.16419,17917828022190,0,0.687744,-2.75098
17917828158799,0.0275277,0.031373,-0.16419,17917828120374,0,0.687744,-2.75098
17917828242335,0.0275277,0.031373,-0.16419,17917828203910,0,0.687744,-2.75098
17917828325871,0.0275277,0.031373,-0.16419,17917828287482,0,0.687744,-2.75098
17917828409314,0.0275277,0.031373,-0.16419,17917828370833,0,0.687744,-2.75098
17917828492831,0.0275277,0.031373,-0.16419,17917828454369,0,0.687744,-2.75098
17917828576589,0.0275277,0.031373,-0.16419,17917828538127,0,0.687744,-2.75098
17917828660125,0.0275277,0.031373,-0.16419,17917828621662,0,0.687744,-2.75098
17917828743605,0.0275277,0.031373,-0.16419,17917828705235,0,0.687744,-2.75098
17917828827085,0.0275277,0.031373,-0.16419,17917828788660,0,0.687744,-2.75098
17917828910695,0.0275277,0.031373,-0.16419,17917828872270,0,0.687744,-2.75098
17917828994120,0.0275277,0.031373,-0.16419,17917828955713,0,0.687744,-2.75098
17917829077526,0.0275277,0.031373,-0.16419,17917829039100,0,0.687744,-2.75098
17917829161043,0.0275277,0.031373,-0.16419,17917829122506,0,0.687744,-2.75098
17917829244449,0.0275277,0.031373,-0.16419,17917829206005,0,0.687744,-2.75098
17917829327911,0.0275277,0.031373,-0.16419,17917829289467,0,0.687744,-2.75098
17917829411520,0.0275277,0.031373,-0.16419,17917829373077,0,0.687744,-2.75098
17917829494964,0.0275277,0.031373,-0.16419,17917829456612,0,0.687744,-2.75098
17917829578333,0.0275277,0.031373,-0.16419,17917829539926,0,0.687744,-2.75098
17917829661776,0.0275277,0.031373,-0.16419,17917829623425,0,0.687744,-2.75098
17917829745219,0.0275277,0.031373,-0.16419,17917829706868,0,0.687744,-2.75098
17917829828718,0.0275277,0.031373,-0.16419,17917829790255,0,0.687744,-2.75098
17917829912124,0.0275277,0.031373,-0.16419,17917829873735,0,0.687744,-2.75098
17917829995493,0.0275277,0.031373,-0.16419,17917829957123,0,0.687744,-2.75098
17917830078769,0.0275277,0.031373,-0.16419,17917830040400,0,0.687744,-2.75098
17917830162175,0.0275277,0.031373,-0.16419,17917830123732,0,0.687744,-2.75098
17917830245785,0.0275277,0.031373,-0.16419,17917830207415,0,0.687744,-2.75098
17917830329469,0.0275277,0.031373,-0.16419,17917830290729,0,0.687744,-2.75098
17917830412968,0.0275277,0.031373,-0.16419,17917830374561,0,0.687744,-2.75098
17917830496337,0.0275277,0.031373,-0.16419,17917830457893,0,0.687744,-2.75098
17917830579817,0.0275277,0.031373,-0.16419,17917830541299,0,0.687744,-2.75098
17917830663279,0.0275277,0.031373,-0.16419,17917830624890,0,0.687744,-2.75098
17917830746759,0.0275277,0.031373,-0.16419,17917830708278,0,0.687744,-2.75098
17917830830239,0.0275277,0.031373,-0.16419,17917830791795,0,0.687744,-2.75098
17917830913627,0.0275277,0.031373,-0.16419,17917830875238,0,0.687744,-2.75098
17917830997199,0.0275277,0.031373,-0.16419,17917830958830,0,0.687744,-2.75098
17917831080846,0.0275277,0.031373,-0.16419,17917831042310,0,0.687744,-2.75098
17917831164308,0.0275277,0.031373,-0.16419,17917831125883,0,0.687744,-2.75098
17917831247807,0.0275277,0.031373,-0.16419,17917831209363,0,0.687744,-2.75098
17917831331379,0.0275277,0.031373,-0.16419,17917831292862,0,0.687744,-2.75098
17917831414841,0.0275277,0.031373,-0.16419,17917831376416,0,0.687744,-2.75098
17917831498210,0.0275277,0.031373,-0.16419,17917831459803,0,0.687744,-2.75098
17917831581598,0.0275277,0.031373,-0.16419,17917831543191,0,0.687744,-2.75098
17917831664985,0.0275277,0.031373,-0.16419,17917831626523,0,0.687744,-2.75098
17917831748669,0.0275277,0.031373,-0.16419,17917831710207,0,0.687744,-2.75098
17917831832094,0.0275277,0.031373,-0.16419,17917831793669,0,0.687744,-2.75098
17917831915426,0.0275277,0.031373,-0.16419,17917831877019,0,0.687744,-2.75098
17917831998814,0.0275277,0.031373,-0.16419,17917831960407,0,0.687744,-2.75098
17917832128589,0.0275277,0.031373,-0.16419,17917832088905,0,0.687744,-2.75098
17917832212606,0.0275277,0.031373,-0.16419,17917832174218,0,0.687744,-2.75098
17917832296050,0.0275277,0.031373,-0.16419,17917832257550,0,0.687744,-2.75098
17917832379567,0.0275277,0.031373,-0.16419,17917832341142,0,0.687744,-2.75098
17917832462917,0.0275277,0.031373,-0.16419,17917832424474,0,0.687744,-2.75098
17917832546231,0.0275277,0.031373,-0.16419,17917832507824,0,0.687744,-2.75098
17917832629600,0.0275277,0.031373,-0.16419,17917832591193,0,0.687744,-2.75098
17917832712914,0.0275277,0.031373,-0.16419,17917832674507,0,0.687744,-2.75098
17917832796227,0.0275277,0.031373,-0.16419,17917832757876,0,0.687744,-2.75098
17917832879652,0.0275277,0.031373,-0.16419,17917832841171,0,0.687744,-2.75098
17917832963021,0.0275277,0.031373,-0.16419,17917832924614,0,0.687744,-2.75098
17917833046501,0.0275277,0.031373,-0.16419,17917833008020,0,0.687744,-2.75098
17917833130000,0.0275277,0.031373,-0.16419,17917833091371,0,0.687744,-2.75098
17917833213406,0.0275277,0.031373,-0.16419,17917833174925,0,0.687744,-2.75098
17917833296756,0.0275277,0.031373,-0.16419,17917833258312,0,0.687744,-2.75098
17917833380162,0.0275277,0.031373,-0.16419,17917833341719,0,0.687744,-2.75098
17917833463680,0.0275277,0.031373,-0.16419,17917833425254,0,0.687744,-2.75098
17917833547104,0.0275277,0.031373,-0.16419,17917833508642,0,0.687744,-2.75098
17917833630418,0.0275277,0.031373,-0.16419,17917833592029,0,0.687744,-2.75098
17917833713991,0.0275277,0.031373,-0.16419,17917833675584,0,0.687744,-2.75098
17917833797823,0.0275277,0.031373,-0.16419,17917833759379,0,0.687744,-2.75098
17917833881377,0.0275277,0.031373,-0.16419,17917833842970,0,0.687744,-2.75098
17917833964764,0.0275277,0.031373,-0.16419,17917833926321,0,0.687744,-2.75098
17917834048208,0.0885647,0.214484,-0.16419,17917834009838,0,0.687744,-2.75098
17917834131632,0.0885647,0.214484,-0.16419,17917834093225,0,0.687744,-2.75098
17917834214964,0.0885647,0.214484,-0.16419,17917834176539,0,0.687744,-2.75098
17917834298370,0.0885647,0.214484,-0.16419,17917834259926,0,0.687744,-2.75098
17917834381721,0.0885647,0.214484,-0.16419,17917834343296,0,0.687744,-2.75098
17917834464997,0.0885647,0.214484,-0.16419,17917834426609,0,0.687744,-2.75098
17917834548422,0.0885647,0.214484,-0.16419,17917834509849,0,0.687744,-2.75098
17917834631791,0.0885647,0.214484,-0.16419,17917834593347,0,0.687744,-2.75098
17917834715216,0.0885647,0.214484,-0.16419,17917834676809,0,0.687744,-2.75098
17917834798455,0.0885647,0.214484,-0.16419,17917834760030,0,0.687744,-2.75098
17917834881732,0.0885647,0.214484,-0.16419,17917834843306,0,0.687744,-2.75098
17917834965027,0.0885647,0.214484,-0.16419,17917834926638,0,0.687744,-2.75098
17917835048396,0.0885647,0.214484,-0.16419,17917835009915,0,0.687744,-2.75098
17917835131709,0.0885647,0.214484,-0.16419,17917835093302,0,0.687744,-2.75098
17917835215041,0.0885647,0.214484,-0.16419,17917835176579,0,0.687744,-2.75098
17917835298836,0.0885647,0.214484,-0.16419,17917835260466,0,0.687744,-2.75098
17917835382224,0.0885647,0.214484,-0.16419,17917835343780,0,0.687744,-2.75098
17917835683886,0.0885647,0.214484,-0.16419,17917835642331,0,0.687744,-2.75098
17917835770699,0.0885647,0.214484,-0.16419,17917835732274,0,0.687744,-2.75098
17917835854087,0.0885647,0.214484,-0.16419,17917835815680,0,0.687744,-2.75098
17917835937789,0.0885647,0.214484,-0.16419,17917835899031,0,0.687744,-2.75098
17917836027380,0.0885647,0.214484,-0.16419,17917835982733,0,0.687744,-2.75098
17917836122397,0.0885647,0.214484,-0.16419,17917836083120,0,0.687744,-2.75098
17917836206137,0.0885647,0.214484,-0.16419,17917836167675,0,0.687744,-2.75098
17917836289506,0.0885647,0.214484,-0.16419,17917836251099,0,0.687744,-2.75098
17917836372931,0.0885647,0.214484,-0.16419,17917836334376,0,0.687744,-2.75098
17917836456189,0.0885647,0.214484,-0.16419,17917836417819,0,0.687744,-2.75098
17917836539484,0.0885647,0.214484,-0.16419,17917836501132,0,0.687744,-2.75098
17917836622705,0.0885647,0.214484,-0.16419,17917836584298,0,0.687744,-2.75098
17917836706148,0.0885647,0.214484,-0.16419,17917836667741,0,0.687744,-2.75098
17917836789628,0.0885647,0.214484,-0.16419,17917836751128,0,0.687744,-2.75098
17917836872923,0.0885647,0.214484,-0.16419,17917836834553,0,0.687744,-2.75098
17917836956440,0.0885647,0.214484,-0.16419,17917836918052,0,0.687744,-2.75098
17917837039680,0.0885647,0.214484,-0.16419,17917837001291,0,0.687744,-2.75098
17917837122919,0.0885647,0.214484,-0.16419,17917837084531,0,0.687744,-2.75098
17917837206344,0.0885647,0.214484,-0.16419,17917837167974,0,0.687744,-2.75098
17917837289602,0.0885647,0.214484,-0.16419,17917837251213,0,0.687744,-2.75098
17917837372897,0.0885647,0.214484,-0.16419,17917837334471,0,0.687744,-2.75098
17917837456525,0.0885647,0.214484,-0.16419,17917837417840,0,0.687744,-2.75098
17917837539709,0.0885647,0.214484,-0.16419,17917837501339,0,0.687744,-2.75098
17917837623078,0.0885647,0.214484,-0.16419,17917837584615,0,0.687744,-2.75098
17917837706447,0.0885647,0.214484,-0.16419,17917837667985,0,0.687744,-2.75098
17917837789705,0.0885647,0.214484,-0.16419,17917837751317,0,0.687744,-2.75098
17917837873092,0.0885647,0.214484,-0.16419,17917837834649,0,0.687744,-2.75098
17917837956536,0.0885647,0.214484,-0.16419,17917837918129,0,0.687744,-2.75098
17917838039923,0.0885647,0.214484,-0.16419,17917838001535,0,0.687744,-2.75098
17917838123237,0.0885647,0.214484,-0.16419,17917838084830,0,0.687744,-2.75098
17917838206587,0.0885647,0.214484,-0.16419,17917838168143,0,0.687744,-2.75098
17917838289864,0.0885647,0.214484,-0.16419,17917838251475,0,0.687744,-2.75098
17917838373085,0.0885647,0.214484,-0.16419,17917838334715,0,0.687744,-2.75098
17917838456306,0.0885647,0.214484,-0.16419,17917838417917,0,0.687744,-2.75098
17917838539619,0.0885647,0.214484,-0.16419,17917838501175,0,0.687744,-2.75098
17917838622951,0.0885647,0.214484,-0.16419,17917838584544,0,0.687744,-2.75098
17917838706302,0.0885647,0.214484,-0.16419,17917838667821,0,0.687744,-2.75098
17917838789782,0.0885647,0.214484,-0.16419,17917838751375,0,0.687744,-2.75098
17917838873392,0.0885647,0.214484,-0.16419,17917838834929,0,0.687744,-2.75098
17917838956724,0.0885647,0.214484,-0.16419,17917838918298,0,0.687744,-2.75098
17917839040241,0.0885647,0.214484,-0.16419,17917839001816,0,0.687744,-2.75098
17917839123666,0.0885647,0.214484,-0.16419,17917839085222,0,0.687744,-2.75098
17917839207072,0.0885647,0.214484,-0.16419,17917839168665,0,0.687744,-2.75098
17917839290533,0.0885647,0.214484,-0.16419,17917839252034,0,0.687744,-2.75098
17917839374032,0.0885647,0.214484,-0.16419,17917839335477,0,0.687744,-2.75098
17917839457438,0.0885647,0.214484,-0.16419,17917839419013,0,0.687744,-2.75098
17917839540807,0.0885647,0.214484,-0.16419,17917839502400,0,0.687744,-2.75098
17917839624250,0.0885647,0.214484,-0.16419,17917839585788,0,0.687744,-2.75098
17917839707768,0.0885647,0.214484,-0.16419,17917839669268,0,0.687744,-2.75098
17917839791174,0.0885647,0.214484,-0.16419,17917839752785,0,0.687744,-2.75098
17917839874709,0.0885647,0.214484,-0.16419,17917839836247,0,0.687744,-2.75098
17917839958393,0.0885647,0.214484,-0.16419,17917839919709,0,0.687744,-2.75098
17917840065614,0.0885647,0.214484,-0.16419,17917840025281,0,0.687744,-2.75098
17917840163890,0.0885647,0.214484,-0.16419,17917840125354,0,0.687744,-2.75098
17917840247148,0.0885647,0.214484,-0.16419,17917840208797,0,0.687744,-2.75098
17917840330628,0.0885647,0.214484,-0.16419,17917840292221,0,0.687744,-2.75098
17917840414053,0.0885647,0.214484,-0.16419,17917840375572,0,0.687744,-2.75098
17917840497570,0.0885647,0.214484,-0.16419,17917840459089,0,0.687744,-2.75098
17917840580939,0.0885647,0.214484,-0.16419,17917840542569,0,0.687744,-2.75098
17917840664382,0.0885647,0.214484,-0.16419,17917840625976,0,0.687744,-2.75098
17917840747788,0.0885647,0.214484,-0.16419,17917840709363,0,0.687744,-2.75098
17917840831324,0.0885647,0.214484,-0.16419,17917840792899,0,0.687744,-2.75098
17917840914712,0.0885647,0.214484,-0.16419,17917840876305,0,0.687744,-2.75098
17917840998025,0.0885647,0.214484,-0.16419,17917840959581,0,0.687744,-2.75098
17917841081283,0.0885647,0.214484,-0.16419,17917841042895,0,0.687744,-2.75098
17917841164578,0.0885647,0.214484,-0.16419,17917841126171,0,0.687744,-2.75098
17917841248058,0.0885647,0.214484,-0.16419,17917841209633,0,0.687744,-2.75098
17917841331465,0.0885647,0.214484,-0.16419,17917841293076,0,0.687744,-2.75098
17917841414852,0.0885647,0.214484,-0.16419,17917841376445,0,0.687744,-2.75098
17917841498295,0.0885647,0.214484,-0.16419,17917841459796,0,0.687744,-2.75098
17917841581646,0.0885647,0.214484,-0.16419,17917841543239,0,0.687744,-2.75098
17917841664959,0.0885647,0.214484,-0.16419,17917841626497,0,0.687744,-2.75098
17917841748440,0.0885647,0.214484,-0.16419,17917841709903,0,0.687744,-2.75098
17917841831772,0.0885647,0.214484,-0.16419,17917841793365,0,0.687744,-2.75098
17917841915122,0.0885647,0.214484,-0.16419,17917841876697,0,0.687744,-2.75098
17917841998491,0.0885647,0.214484,-0.16419,17917841960084,0,0.687744,-2.75098
17917842082138,0.0885647,0.214484,-0.16419,17917842043731,0,0.687744,-2.75098
17917842165415,0.0885647,0.214484,-0.16419,17917842127026,0,0.687744,-2.75098
17917842248858,0.0885647,0.214484,-0.16419,17917842210395,0,0.687744,-2.75098
17917842332171,0.0885647,0.214484,-0.16419,17917842293783,0,0.687744,-2.75098
17917842415485,0.0885647,0.214484,-0.16419,17917842377078,0,0.687744,-2.75098
17917842498872,0.0885647,0.214484,-0.16419,17917842460484,0,0.687744,-2.75098
17917842582241,0.0885647,0.214484,-0.16419,17917842543798,0,0.687744,-2.75098
17917842665647,0.0885647,0.214484,-0.16419,17917842627185,0,0.687744,-2.75098
17917842749054,0.0885647,0.214484,-0.16419,17917842710573,0,0.687744,-2.75098
17917842832312,0.0885647,0.214484,-0.16419,17917842793905,0,0.687744,-2.75098
17917842915736,0.0885647,0.214484,-0.16419,17917842877348,0,0.687744,-2.75098
17917842998994,0.0885647,0.214484,-0.16419,17917842960606,0,0.687744,-2.75098
17917843082345,0.0885647,0.214484,-0.16419,17917843043882,0,0.687744,-2.75098
17917843165695,0.0885647,0.214484,-0.16419,17917843127214,0,0.687744,-2.75098
17917843249175,0.0885647,0.214484,-0.16419,17917843210713,0,0.687744,-2.75098
17917843332637,0.0885647,0.214484,-0.16419,17917843294175,0,0.687744,-2.75098
17917843415858,0.0885647,0.214484,-0.16419,17917843377507,0,0.687744,-2.75098
17917843499153,0.0885647,0.214484,-0.16419,17917843460783,0,0.687744,-2.75098
17917843582467,0.0885647,0.214484,-0.16419,17917843544041,0,0.687744,-2.75098
17917843665706,0.0885647,0.214484,-0.16419,17917843627281,0,0.687744,-2.75098
17917843749057,0.0885647,0.214484,-0.16419,17917843710687,0,0.687744,-2.75098
17917843832555,0.0885647,0.214484,-0.16419,17917843794185,0,0.687744,-2.75098
17917843915887,0.0885647,0.214484,-0.16419,17917843877480,0,0.687744,-2.75098
17917843999293,0.0885647,0.214484,-0.16419,17917843960775,0,0.687744,-2.75098
17917844126995,0.149602,0.275521,0.0189215,17917844086977,0,0.687744,-2.75098
17917844211309,0.149602,0.275521,0.0189215,17917844172735,0,0.687744,-2.75098
17917844294789,0.149602,0.275521,0.0189215,17917844256308,0,0.687744,-2.75098
17917844378584,0.149602,0.275521,0.0189215,17917844340158,0,0.687744,-2.75098
17917844462138,0.149602,0.275521,0.0189215,17917844423713,0,0.687744,-2.75098
17917844726967,0.149602,0.275521,0.0189215,17917844686209,0,0.687744,-2.75098
17917844812225,0.149602,0.275521,0.0189215,17917844773818,0,0.687744,-2.75098
17917844895613,0.149602,0.275521,0.0189215,17917844857206,0,0.687744,-2.75098
17917844979019,0.149602,0.275521,0.0189215,17917844940538,0,0.687744,-2.75098
17917845062369,0.149602,0.275521,0.0189215,17917845023926,0,0.687744,-2.75098
17917845145905,0.149602,0.275521,0.0189215,17917845107461,0,0.687744,-2.75098
17917845229256,0.149602,0.275521,0.0189215,17917845190830,0,0.687744,-2.75098
17917845312606,0.149602,0.275521,0.0189215,17917845274181,0,0.687744,-2.75098
17917845395883,0.149602,0.275521,0.0189215,17917845357494,0,0.687744,-2.75098
17917845479437,0.149602,0.275521,0.0189215,17917845440808,0,0.687744,-2.75098
17917845562751,0.149602,0.275521,0.0189215,17917845524325,0,0.687744,-2.75098
17917845646064,0.149602,0.275521,0.0189215,17917845607657,0,0.687744,-2.75098
17917845729396,0.149602,0.275521,0.0189215,17917845690915,0,0.687744,-2.75098
17917845812691,0.149602,0.275521,0.0189215,17917845774266,0,0.687744,-2.75098
17917845896079,0.149602,0.275521,0.0189215,17917845857690,0,0.687744,-2.75098
17917845979337,0.149602,0.275521,0.0189215,17917845940911,0,0.687744,-2.75098
17917846062854,0.149602,0.275521,0.0189215,17917846024410,0,0.687744,-2.75098
17917846146241,0.149602,0.275521,0.0189215,17917846107779,0,0.687744,-2.75098
17917846229611,0.149602,0.275521,0.0189215,17917846191185,0,0.687744,-2.75098
17917846312906,0.149602,0.275521,0.0189215,17917846274499,0,0.687744,-2.75098
17917846396275,0.149602,0.275521,0.0189215,17917846357868,0,0.687744,-2.75098
17917846479496,0.149602,0.275521,0.0189215,17917846441144,0,0.687744,-2.75098
17917846562809,0.149602,0.275521,0.0189215,17917846524439,0,0.687744,-2.75098
17917846646308,0.149602,0.275521,0.0189215,17917846607882,0,0.687744,-2.75098
17917846729881,0.149602,0.275521,0.0189215,17917846691344,0,0.687744,-2.75098
17917846813157,0.149602,0.275521,0.0189215,17917846774750,0,0.687744,-2.75098
17917846896600,0.149602,0.275521,0.0189215,17917846858138,0,0.687744,-2.75098
17917846980006,0.149602,0.275521,0.0189215,17917846941544,0,0.687744,-2.75098
17917847063431,0.149602,0.275521,0.0189215,17917847024913,0,0.687744,-2.75098
17917847146930,0.149602,0.275521,0.0189215,17917847108412,0,0.687744,-2.75098
17917847230502,0.149602,0.275521,0.0189215,17917847192059,0,0.687744,-2.75098
17917847313983,0.149602,0.275521,0.0189215,17917847275502,0,0.687744,-2.75098
17917847397296,0.149602,0.275521,0.0189215,17917847358889,0,0.687744,-2.75098
17917847480647,0.149602,0.275521,0.0189215,17917847442203,0,0.687744,-2.75098
17917847564071,0.149602,0.275521,0.0189215,17917847525646,0,0.687744,-2.75098
17917847647551,0.149602,0.275521,0.0189215,17917847609108,0,0.687744,-2.75098
17917847730902,0.149602,0.275521,0.0189215,17917847692495,0,0.687744,-2.75098
17917847814438,0.149602,0.275521,0.0189215,17917847776012,0,0.687744,-2.75098
17917847897844,0.149602,0.275521,0.0189215,17917847859400,0,0.687744,-2.75098
17917847981287,0.149602,0.275521,0.0189215,17917847942843,0,0.687744,-2.75098
17917848067600,0.149602,0.275521,0.0189215,17917848027490,0,0.687744,-2.75098
17917848162858,0.149602,0.275521,0.0189215,17917848124340,0,0.687744,-2.75098
17917848246246,0.149602,0.275521,0.0189215,17917848207783,0,0.687744,-2.75098
17917848329800,0.149602,0.275521,0.0189215,17917848291375,0,0.687744,-2.75098
17917848413373,0.149602,0.275521,0.0189215,17917848374892,0,0.687744,-2.75098
17917848497316,0.149602,0.275521,0.0189215,17917848458909,0,0.687744,-2.75098
17917848580759,0.149602,0.275521,0.0189215,17917848542278,0,0.687744,-2.75098
17917848664221,0.149602,0.275521,0.0189215,17917848625795,0,0.687744,-2.75098
17917848747942,0.149602,0.275521,0.0189215,17917848709368,0,0.687744,-2.75098
17917848831200,0.149602,0.275521,0.0189215,17917848792811,0,0.687744,-2.75098
17917848914569,0.149602,0.275521,0.0189215,17917848876143,0,0.687744,-2.75098
17917848997938,0.149602,0.275521,0.0189215,17917848959494,0,0.687744,-2.75098
17917849081307,0.149602,0.275521,0.0189215,17917849042919,0,0.687744,-2.75098
17917849164935,0.149602,0.275521,0.0189215,17917849126528,0,0.687744,-2.75098
17917849248304,0.149602,0.275521,0.0189215,17917849209879,0,0.687744,-2.75098
17917849331692,0.149602,0.275521,0.0189215,17917849293304,0,0.687744,-2.75098
17917849415135,0.149602,0.275521,0.0189215,17917849376691,0,0.687744,-2.75098
17917849498578,0.149602,0.275521,0.0189215,17917849460134,0,0.687744,-2.75098
17917849581836,0.149602,0.275521,0.0189215,17917849543448,0,0.687744,-2.75098
17917849665372,0.149602,0.275521,0.0189215,17917849626891,0,0.687744,-2.75098
17917849748685,0.149602,0.275521,0.0189215,17917849710297,0,0.687744,-2.75098
17917849832443,0.149602,0.275521,0.0189215,17917849793814,0,0.687744,-2.75098
17917849915757,0.149602,0.275521,0.0189215,17917849877350,0,0.687744,-2.75098
17917849999107,0.149602,0.275521,0.0189215,17917849960701,0,0.687744,-2.75098
17917850082495,0.149602,0.275521,0.0189215,17917850044033,0,0.687744,-2.75098
17917850165790,0.149602,0.275521,0.0189215,17917850127365,0,0.687744,-2.75098
17917850249085,0.149602,0.275521,0.0189215,17917850210641,0,0.687744,-2.75098
17917850332713,0.149602,0.275521,0.0189215,17917850293973,0,0.687744,-2.75098
17917850416156,0.149602,0.275521,0.0189215,17917850377750,0,0.687744,-2.75098
17917850499674,0.149602,0.275521,0.0189215,17917850461193,0,0.687744,-2.75098
17917850582932,0.149602,0.275521,0.0189215,17917850544543,0,0.687744,-2.75098
17917850666449,0.149602,0.275521,0.0189215,17917850628024,0,0.687744,-2.75098
17917850749799,0.149602,0.275521,0.0189215,17917850711374,0,0.687744,-2.75098
17917850833391,0.149602,0.275521,0.0189215,17917850794947,0,0.687744,-2.75098
17917850916982,0.149602,0.275521,0.0189215,17917850878538,0,0.687744,-2.75098
17917851000407,0.149602,0.275521,0.0189215,17917850961963,0,0.687744,-2.75098
17917851083776,0.149602,0.275521,0.0189215,17917851045350,0,0.687744,-2.75098
17917851167108,0.149602,0.275521,0.0189215,17917851128719,0,0.687744,-2.75098
17917851250588,0.149602,0.275521,0.0189215,17917851212126,0,0.687744,-2.75098
17917851333938,0.149602,0.275521,0.0189215,17917851295513,0,0.687744,-2.75098
17917851417326,0.149602,0.275521,0.0189215,17917851378938,0,0.687744,-2.75098
17917851500621,0.149602,0.275521,0.0189215,17917851462233,0,0.687744,-2.75098
17917851583972,0.149602,0.275521,0.0189215,17917851545528,0,0.687744,-2.75098
17917851667304,0.149602,0.275521,0.0189215,17917851628897,0,0.687744,-2.75098
17917851750654,0.149602,0.275521,0.0189215,17917851712229,0,0.687744,-2.75098
17917851834005,0.149602,0.275521,0.0189215,17917851795579,0,0.687744,-2.75098
17917851917392,0.149602,0.275521,0.0189215,17917851878874,0,0.687744,-2.75098
17917852018002,0.149602,0.275521,0.0189215,17917851962392,0,0.687744,-2.75098
17917852118223,0.149602,0.275521,0.0189215,17917852078482,0,0.687744,-2.75098
17917852201906,0.149602,0.275521,0.0189215,17917852163463,0,0.687744,-2.75098
17917852285461,0.149602,0.275521,0.0189215,17917852246998,0,0.687744,-2.75098
17917852369015,0.149602,0.275521,0.0189215,17917852330497,0,0.687744,-2.75098
17917852452514,0.149602,0.275521,0.0189215,17917852414033,0,0.687744,-2.75098
17917852535975,0.149602,0.275521,0.0189215,17917852497494,0,0.687744,-2.75098
17917852619326,0.149602,0.275521,0.0189215,17917852580882,0,0.687744,-2.75098
17917852702676,0.149602,0.275521,0.0189215,17917852664288,0,0.687744,-2.75098
17917852785953,0.149602,0.275521,0.0189215,17917852747583,0,0.687744,-2.75098
17917852869266,0.149602,0.275521,0.0189215,17917852830897,0,0.687744,-2.75098
17917852952617,0.149602,0.275521,0.0189215,17917852914210,0,0.687744,-2.75098
17917853036060,0.149602,0.275521,0.0189215,17917852997579,0,0.687744,-2.75098
17917853119411,0.149602,0.275521,0.0189215,17917853081022,0,0.687744,-2.75098
17917853204169,0.149602,0.275521,0.0189215,17917853164817,0,0.687744,-2.75098
17917853292741,0.149602,0.275521,0.0189215,17917853254297,0,0.687744,-2.75098
17917853376518,0.149602,0.275521,0.0189215,17917853338018,0,0.687744,-2.75098
17917853459942,0.149602,0.275521,0.0189215,17917853421462,0,0.687744,-2.75098
17917853711920,0.149602,0.275521,0.0189215,17917853670884,0,0.687744,-2.75098
17917853798493,0.149602,0.275521,0.0189215,17917853760030,0,0.687744,-2.75098
17917853881973,0.149602,0.275521,0.0189215,17917853843529,0,0.687744,-2.75098
17917853965342,0.149602,0.275521,0.0189215,17917853926861,0,0.687744,-2.75098
17917854048674,0.0885647,0.641743,0.0799585,17917854010230,0,0.687744,-2.75098
17917854132173,0.0885647,0.641743,0.0799585,17917854093766,0,0.687744,-2.75098
17917854215542,0.0885647,0.641743,0.0799585,17917854177135,0,0.687744,-2.75098
17917854299263,0.0885647,0.641743,0.0799585,17917854260448,0,0.687744,-2.75098
17917854382687,0.0885647,0.641743,0.0799585,17917854344262,0,0.687744,-2.75098
17917854465908,0.0885647,0.641743,0.0799585,17917854427538,0,0.687744,-2.75098
17917854549277,0.0885647,0.641743,0.0799585,17917854510833,0,0.687744,-2.75098
17917854632535,0.0885647,0.641743,0.0799585,17917854594110,0,0.687744,-2.75098
17917854715867,0.0885647,0.641743,0.0799585,17917854677423,0,0.687744,-2.75098
17917854799181,0.0885647,0.641743,0.0799585,17917854760755,0,0.687744,-2.75098
17917854882587,0.0885647,0.641743,0.0799585,17917854844180,0,0.687744,-2.75098
17917854966123,0.0885647,0.641743,0.0799585,17917854927697,0,0.687744,-2.75098
17917855049436,0.0885647,0.641743,0.0799585,17917855011029,0,0.687744,-2.75098
17917855132842,0.0885647,0.641743,0.0799585,17917855094417,0,0.687744,-2.75098
17917855216341,0.0885647,0.641743,0.0799585,17917855177730,0,0.687744,-2.75098
17917855299747,0.0885647,0.641743,0.0799585,17917855261266,0,0.687744,-2.75098
17917855383172,0.0885647,0.641743,0.0799585,17917855344691,0,0.687744,-2.75098
17917855466559,0.0885647,0.641743,0.0799585,17917855428190,0,0.687744,-2.75098
17917855550002,0.0885647,0.641743,0.0799585,17917855511596,0,0.687744,-2.75098
17917855633353,0.0885647,0.641743,0.0799585,17917855594891,0,0.687744,-2.75098
17917855716667,0.0885647,0.641743,0.0799585,17917855678278,0,0.687744,-2.75098
17917855800017,0.0885647,0.641743,0.0799585,17917855761610,0,0.687744,-2.75098
17917855883405,0.0885647,0.641743,0.0799585,17917855844979,0,0.687744,-2.75098
17917855966700,0.0885647,0.641743,0.0799585,17917855928274,0,0.687744,-2.75098
17917856065198,0.0885647,0.641743,0.0799585,17917856024643,0,0.687744,-2.75098
17917856160715,0.0885647,0.641743,0.0799585,17917856122160,0,0.687744,-2.75098
17917856244269,0.0885647,0.641743,0.0799585,17917856205900,0,0.687744,-2.75098
17917856327787,0.0885647,0.641743,0.0799585,17917856289343,0,0.687744,-2.75098
17917856411267,0.0885647,0.641743,0.0799585,17917856372842,0,0.687744,-2.75098
17917856494821,0.0885647,0.641743,0.0799585,17917856456396,0,0.687744,-2.75098
17917856578727,0.0885647,0.641743,0.0799585,17917856540283,0,0.687744,-2.75098
17917856662226,0.0885647,0.641743,0.0799585,17917856623838,0,0.687744,-2.75098
17917856745780,0.0885647,0.641743,0.0799585,17917856707336,0,0.687744,-2.75098
17917856829205,0.0885647,0.641743,0.0799585,17917856790742,0,0.687744,-2.75098
17917856912648,0.0885647,0.641743,0.0799585,17917856874241,0,0.687744,-2.75098
17917856996147,0.0885647,0.641743,0.0799585,17917856957740,0,0.687744,-2.75098
17917857079553,0.0885647,0.641743,0.0799585,17917857041201,0,0.687744,-2.75098
17917857162996,0.0885647,0.641743,0.0799585,17917857124608,0,0.687744,-2.75098
17917857246495,0.0885647,0.641743,0.0799585,17917857208032,0,0.687744,-2.75098
17917857329956,0.0885647,0.641743,0.0799585,17917857291475,0,0.687744,-2.75098
17917857413399,0.0885647,0.641743,0.0799585,17917857374974,0,0.687744,-2.75098
17917857496805,0.0885647,0.641743,0.0799585,17917857458343,0,0.687744,-2.75098
17917857580212,0.0885647,0.641743,0.0799585,17917857541768,0,0.687744,-2.75098
17917857663747,0.0885647,0.641743,0.0799585,17917857625322,0,0.687744,-2.75098
17917857747172,0.0885647,0.641743,0.0799585,17917857708784,0,0.687744,-2.75098
17917857830671,0.0885647,0.641743,0.0799585,17917857792264,0,0.687744,-2.75098
17917857914169,0.0885647,0.641743,0.0799585,17917857875726,0,0.687744,-2.75098
17917857997613,0.0885647,0.641743,0.0799585,17917857959132,0,0.687744,-2.75098
17917858080982,0.0885647,0.641743,0.0799585,17917858042593,0,0.687744,-2.75098
17917858164703,0.0885647,0.641743,0.0799585,17917858126073,0,0.687744,-2.75098
17917858248146,0.0885647,0.641743,0.0799585,17917858209739,0,0.687744,-2.75098
17917858331626,0.0885647,0.641743,0.0799585,17917858293163,0,0.687744,-2.75098
17917858414995,0.0885647,0.641743,0.0799585,17917858376570,0,0.687744,-2.75098
17917858498420,0.0885647,0.641743,0.0799585,17917858460013,0,0.687744,-2.75098
17917858581826,0.0885647,0.641743,0.0799585,17917858543382,0,0.687744,-2.75098
17917858665195,0.0885647,0.641743,0.0799585,17917858626769,0,0.687744,-2.75098
17917858748619,0.0885647,0.641743,0.0799585,17917858710157,0,0.687744,-2.75098
17917858831933,0.0885647,0.641743,0.0799585,17917858793526,0,0.687744,-2.75098
17917858915302,0.0885647,0.641743,0.0799585,17917858876840,0,0.687744,-2.75098
17917858998652,0.0885647,0.641743,0.0799585,17917858960190,0,0.687744,-2.75098
17917859082077,0.0885647,0.641743,0.0799585,17917859043615,0,0.687744,-2.75098
17917859165631,0.0885647,0.641743,0.0799585,17917859127188,0,0.687744,-2.75098
17917859249112,0.0885647,0.641743,0.0799585,17917859210705,0,0.687744,-2.75098
17917859332555,0.0885647,0.641743,0.0799585,17917859294166,0,0.687744,-2.75098
17917859416035,0.0885647,0.641743,0.0799585,17917859377610,0,0.687744,-2.75098
17917859499367,0.0885647,0.641743,0.0799585,17917859460979,0,0.687744,-2.75098
17917859582866,0.0885647,0.641743,0.0799585,17917859544459,0,0.687744,-2.75098
17917859666198,0.0885647,0.641743,0.0799585,17917859627791,0,0.687744,-2.75098
17917859749530,0.0885647,0.641743,0.0799585,17917859711104,0,0.687744,-2.75098
17917859832899,0.0885647,0.641743,0.0799585,17917859794473,0,0.687744,-2.75098
17917859916342,0.0885647,0.641743,0.0799585,17917859877935,0,0.687744,-2.75098
17917859999748,0.0885647,0.641743,0.0799585,17917859961304,0,0.687744,-2.75098
17917860120005,0.0885647,0.641743,0.0799585,17917860080413,0,0.687744,-2.75098
17917860204023,0.0885647,0.641743,0.0799585,17917860165653,0,0.687744,-2.75098
17917860287447,0.0885647,0.641743,0.0799585,17917860249022,0,0.687744,-2.75098
17917860371076,0.0885647,0.641743,0.0799585,17917860332632,0,0.687744,-2.75098
17917860454648,0.0885647,0.641743,0.0799585,17917860416204,0,0.687744,-2.75098
17917860537999,0.0885647,0.641743,0.0799585,17917860499592,0,0.687744,-2.75098
17917860621553,0.0885647,0.641743,0.0799585,17917860583146,0,0.687744,-2.75098
17917860704978,0.0885647,0.641743,0.0799585,17917860666534,0,0.687744,-2.75098
17917860788439,0.0885647,0.641743,0.0799585,17917860750014,0,0.687744,-2.75098
17917860871846,0.0885647,0.641743,0.0799585,17917860833420,0,0.687744,-2.75098
17917860955326,0.0885647,0.641743,0.0799585,17917860916956,0,0.687744,-2.75098
17917861038769,0.0885647,0.641743,0.0799585,17917861000399,0,0.687744,-2.75098
17917861122101,0.0885647,0.641743,0.0799585,17917861083676,0,0.687744,-2.75098
17917861205470,0.0885647,0.641743,0.0799585,17917861167008,0,0.687744,-2.75098
17917861289117,0.0885647,0.641743,0.0799585,17917861250673,0,0.687744,-2.75098
17917861372430,0.0885647,0.641743,0.0799585,17917861334024,0,0.687744,-2.75098
17917861455799,0.0885647,0.641743,0.0799585,17917861417337,0,0.687744,-2.75098
17917861539057,0.0885647,0.641743,0.0799585,17917861500706,0,0.687744,-2.75098
17917861622482,0.0885647,0.641743,0.0799585,17917861583983,0,0.687744,-2.75098
17917861705925,0.0885647,0.641743,0.0799585,17917861667481,0,0.687744,-2.75098
17917861789387,0.0885647,0.641743,0.0799585,17917861750943,0,0.687744,-2.75098
17917861872719,0.0885647,0.641743,0.0799585,17917861834331,0,0.687744,-2.75098
17917861956162,0.0885647,0.641743,0.0799585,17917861917755,0,0.687744,-2.75098
17917862039568,0.0885647,0.641743,0.0799585,17917862001106,0,0.687744,-2.75098
17917862122974,0.0885647,0.641743,0.0799585,17917862084549,0,0.687744,-2.75098
17917862206325,0.0885647,0.641743,0.0799585,17917862167936,0,0.687744,-2.75098
17917862290138,0.0885647,0.641743,0.0799585,17917862251769,0,0.687744,-2.75098
17917862373822,0.0885647,0.641743,0.0799585,17917862335378,0,0.687744,-2.75098
17917862656762,0.0885647,0.641743,0.0799585,17917862616337,0,0.687744,-2.75098
17917862742539,0.0885647,0.641743,0.0799585,17917862704021,0,0.687744,-2.75098
17917862826241,0.0885647,0.641743,0.0799585,17917862787871,0,0.687744,-2.75098
17917862909851,0.0885647,0.641743,0.0799585,17917862871444,0,0.687744,-2.75098
17917862993350,0.0885647,0.641743,0.0799585,17917862954850,0,0.687744,-2.75098
17917863076867,0.0885647,0.641743,0.0799585,17917863038516,0,0.687744,-2.75098
17917863160440,0.0885647,0.641743,0.0799585,17917863122014,0,0.687744,-2.75098
17917863243901,0.0885647,0.641743,0.0799585,17917863205494,0,0.687744,-2.75098
17917863327418,0.0885647,0.641743,0.0799585,17917863288993,0,0.687744,-2.75098
17917863410899,0.0885647,0.641743,0.0799585,17917863372455,0,0.687744,-2.75098
17917863494342,0.0885647,0.641743,0.0799585,17917863455953,0,0.687744,-2.75098
17917863577748,0.0885647,0.641743,0.0799585,17917863539323,0,0.687744,-2.75098
17917863661191,0.0885647,0.641743,0.0799585,17917863622747,0,0.687744,-2.75098
17917863744523,0.0885647,0.641743,0.0799585,17917863706135,0,0.687744,-2.75098
17917863827911,0.0885647,0.641743,0.0799585,17917863789522,0,0.687744,-2.75098
17917863911372,0.0885647,0.641743,0.0799585,17917863872984,0,0.687744,-2.75098
17917863994834,0.0885647,0.641743,0.0799585,17917863956427,0,0.687744,-2.75098
17917864125628,0.0885647,0.275521,0.140996,17917864085666,0,0.687744,-2.75098
17917864210831,0.0885647,0.275521,0.140996,17917864172442,0,0.687744,-2.75098
17917864294700,0.0885647,0.275521,0.140996,17917864256293,0,0.687744,-2.75098
17917864378291,0.0885647,0.275521,0.140996,17917864339810,0,0.687744,-2.75098
17917864461919,0.0885647,0.275521,0.140996,17917864423420,0,0.687744,-2.75098
17917864545492,0.0885647,0.275521,0.140996,17917864507048,0,0.687744,-2.75098
17917864628880,0.0885647,0.275521,0.140996,17917864590473,0,0.687744,-2.75098
17917864712064,0.0885647,0.275521,0.140996,17917864673675,0,0.687744,-2.75098
17917864795470,0.0885647,0.275521,0.140996,17917864757026,0,0.687744,-2.75098
17917864878728,0.0885647,0.275521,0.140996,17917864840358,0,0.687744,-2.75098
17917864962060,0.0885647,0.275521,0.140996,17917864923671,0,0.687744,-2.75098
17917865045429,0.0885647,0.275521,0.140996,17917865006985,0,0.687744,-2.75098
17917865128761,0.0885647,0.275521,0.140996,17917865090317,0,0.687744,-2.75098
17917865212130,0.0885647,0.275521,0.140996,17917865173705,0,0.687744,-2.75098
17917865295684,0.0885647,0.275521,0.140996,17917865257296,0,0.687744,-2.75098
17917865379090,0.0885647,0.275521,0.140996,17917865340665,0,0.687744,-2.75098
17917865462922,0.0885647,0.275521,0.140996,17917865424515,0,0.687744,-2.75098
17917865546236,0.0885647,0.275521,0.140996,17917865507866,0,0.687744,-2.75098
17917865629679,0.0885647,0.275521,0.140996,17917865591254,0,0.687744,-2.75098
17917865713029,0.0885647,0.275521,0.140996,17917865674641,0,0.687744,-2.75098
17917865796584,0.0885647,0.275521,0.140996,17917865758158,0,0.687744,-2.75098
17917865879971,0.0885647,0.275521,0.140996,17917865841602,0,0.687744,-2.75098
17917865963470,0.0885647,0.275521,0.140996,17917865925026,0,0.687744,-2.75098
17917866047098,0.0885647,0.275521,0.140996,17917866008636,0,0.687744,-2.75098
17917866130967,0.0885647,0.275521,0.140996,17917866092579,0,0.687744,-2.75098
17917866214466,0.0885647,0.275521,0.140996,17917866176133,0,0.687744,-2.75098
17917866297854,0.0885647,0.275521,0.140996,17917866259447,0,0.687744,-2.75098
17917866381501,0.0885647,0.275521,0.140996,17917866342779,0,0.687744,-2.75098
17917866464851,0.0885647,0.275521,0.140996,17917866426463,0,0.687744,-2.75098
17917866548239,0.0885647,0.275521,0.140996,17917866509813,0,0.687744,-2.75098
17917866631886,0.0885647,0.275521,0.140996,17917866593312,0,0.687744,-2.75098
17917866715347,0.0885647,0.275521,0.140996,17917866676959,0,0.687744,-2.75098
17917866798790,0.0885647,0.275521,0.140996,17917866760328,0,0.687744,-2.75098
17917866882363,0.0885647,0.275521,0.140996,17917866843882,0,0.687744,-2.75098
17917866965584,0.0885647,0.275521,0.140996,17917866927214,0,0.687744,-2.75098
17917867049175,0.0885647,0.275521,0.140996,17917867010713,0,0.687744,-2.75098
17917867132563,0.0885647,0.275521,0.140996,17917867094119,0,0.687744,-2.75098
17917867215913,0.0885647,0.275521,0.140996,17917867177470,0,0.687744,-2.75098
17917867299301,0.0885647,0.275521,0.140996,17917867260857,0,0.687744,-2.75098
17917867382707,0.0885647,0.275521,0.140996,17917867344300,0,0.687744,-2.75098
17917867466206,0.0885647,0.275521,0.140996,17917867427744,0,0.687744,-2.75098
17917867549556,0.0885647,0.275521,0.140996,17917867511131,0,0.687744,-2.75098
17917867632851,0.0885647,0.275521,0.140996,17917867594500,0,0.687744,-2.75098
17917867716165,0.0885647,0.275521,0.140996,17917867677795,0,0.687744,-2.75098
17917867799627,0.0885647,0.275521,0.140996,17917867761164,0,0.687744,-2.75098
17917867883014,0.0885647,0.275521,0.140996,17917867844607,0,0.687744,-2.75098
17917867966346,0.0885647,0.275521,0.140996,17917867927939,0,0.687744,-2.75098
17917868062752,0.0885647,0.275521,0.140996,17917868021956,0,0.687744,-2.75098
17917868157343,0.0885647,0.275521,0.140996,17917868118918,0,0.687744,-2.75098
17917868241101,0.0885647,0.275521,0.140996,17917868202676,0,0.687744,-2.75098
17917868324711,0.0885647,0.275521,0.140996,17917868286212,0,0.687744,-2.75098
17917868408117,0.0885647,0.275521,0.140996,17917868369692,0,0.687744,-2.75098
17917868491523,0.0885647,0.275521,0.140996,17917868453135,0,0.687744,-2.75098
17917868575059,0.0885647,0.275521,0.140996,17917868536634,0,0.687744,-2.75098
17917868658502,0.0885647,0.275521,0.140996,17917868619966,0,0.687744,-2.75098
17917868741853,0.0885647,0.275521,0.140996,17917868703446,0,0.687744,-2.75098
17917868825296,0.0885647,0.275521,0.140996,17917868786870,0,0.687744,-2.75098
17917868908665,0.0885647,0.275521,0.140996,17917868870277,0,0.687744,-2.75098
17917868992145,0.0885647,0.275521,0.140996,17917868953664,0,0.687744,-2.75098
17917869075607,0.0885647,0.275521,0.140996,17917869037107,0,0.687744,-2.75098
17917869159050,0.0885647,0.275521,0.140996,17917869120625,0,0.687744,-2.75098
17917869242363,0.0885647,0.275521,0.140996,17917869203938,0,0.687744,-2.75098
17917869325936,0.0885647,0.275521,0.140996,17917869287400,0,0.687744,-2.75098
17917869409435,0.0885647,0.275521,0.140996,17917869370954,0,0.687744,-2.75098
17917869492989,0.0885647,0.275521,0.140996,17917869454508,0,0.687744,-2.75098
17917869576340,0.0885647,0.275521,0.140996,17917869537896,0,0.687744,-2.75098
17917869659709,0.0885647,0.275521,0.140996,17917869621265,0,0.687744,-2.75098
17917869743022,0.0885647,0.275521,0.140996,17917869704653,0,0.687744,-2.75098
17917869826502,0.0885647,0.275521,0.140996,17917869788059,0,0.687744,-2.75098
17917869909927,0.0885647,0.275521,0.140996,17917869871557,0,0.687744,-2.75098
17917869993278,0.0885647,0.275521,0.140996,17917869954889,0,0.687744,-2.75098
17917870076684,0.0885647,0.275521,0.140996,17917870038295,0,0.687744,-2.75098
17917870160108,0.0885647,0.275521,0.140996,17917870121646,0,0.687744,-2.75098
17917870243552,0.0885647,0.275521,0.140996,17917870205145,0,0.687744,-2.75098
17917870326921,0.0885647,0.275521,0.140996,17917870288551,0,0.687744,-2.75098
17917870410216,0.0885647,0.275521,0.140996,17917870371846,0,0.687744,-2.75098
17917870493548,0.0885647,0.275521,0.140996,17917870455085,0,0.687744,-2.75098
17917870577083,0.0885647,0.275521,0.140996,17917870538640,0,0.687744,-2.75098
17917870660582,0.0885647,0.275521,0.140996,17917870622138,0,0.687744,-2.75098
17917870744025,0.0885647,0.275521,0.140996,17917870705637,0,0.687744,-2.75098
17917870827487,0.0885647,0.275521,0.140996,17917870789043,0,0.687744,-2.75098
17917870910930,0.0885647,0.275521,0.140996,17917870872560,0,0.687744,-2.75098
17917870994355,0.0885647,0.275521,0.140996,17917870955929,0,0.687744,-2.75098
17917871077927,0.0885647,0.275521,0.140996,17917871039484,0,0.687744,-2.75098
17917871161296,0.0885647,0.275521,0.140996,17917871122871,0,0.687744,-2.75098
17917871244629,0.0885647,0.275521,0.140996,17917871206259,0,0.687744,-2.75098
17917871328424,0.0885647,0.275521,0.140996,17917871290035,0,0.687744,-2.75098
17917871411774,0.0885647,0.275521,0.140996,17917871373367,0,0.687744,-2.75098
17917871693881,0.0885647,0.275521,0.140996,17917871652270,0,0.687744,-2.75098
17917871779305,0.0885647,0.275521,0.140996,17917871740750,0,0.687744,-2.75098
17917871862860,0.0885647,0.275521,0.140996,17917871824471,0,0.687744,-2.75098
17917871946192,0.0885647,0.275521,0.140996,17917871907766,0,0.687744,-2.75098
17917872055505,0.0885647,0.275521,0.140996,17917871991154,0,0.687744,-2.75098
17917872145837,0.0885647,0.275521,0.140996,17917872107282,0,0.687744,-2.75098
17917872229780,0.0885647,0.275521,0.140996,17917872191299,0,0.687744,-2.75098
17917872313242,0.0885647,0.275521,0.140996,17917872274798,0,0.687744,-2.75098
17917872396888,0.0885647,0.275521,0.140996,17917872358426,0,0.687744,-2.75098
17917872480406,0.0885647,0.275521,0.140996,17917872441925,0,0.687744,-2.75098
17917872563775,0.0885647,0.275521,0.140996,17917872525386,0,0.687744,-2.75098
17917872647162,0.0885647,0.275521,0.140996,17917872608737,0,0.687744,-2.75098
17917872730587,0.0885647,0.275521,0.140996,17917872692199,0,0.687744,-2.75098
17917872814160,0.0885647,0.275521,0.140996,17917872775734,0,0.687744,-2.75098
17917872897769,0.0885647,0.275521,0.140996,17917872859307,0,0.687744,-2.75098
17917872981139,0.0885647,0.275521,0.140996,17917872942750,0,0.687744,-2.75098
17917873064489,0.0885647,0.275521,0.140996,17917873026119,0,0.687744,-2.75098
17917873147877,0.0885647,0.275521,0.140996,17917873109433,0,0.687744,-2.75098
17917873231653,0.0885647,0.275521,0.140996,17917873193209,0,0.687744,-2.75098
17917873315226,0.0885647,0.275521,0.140996,17917873276615,0,0.687744,-2.75098
17917873398651,0.0885647,0.275521,0.140996,17917873360262,0,0.687744,-2.75098
17917873482094,0.0885647,0.275521,0.140996,17917873443631,0,0.687744,-2.75098
17917873565426,0.0885647,0.275521,0.140996,17917873527056,0,0.687744,-2.75098
17917873649165,0.0885647,0.275521,0.140996,17917873610721,0,0.687744,-2.75098
17917873732942,0.0885647,0.275521,0.140996,17917873694202,0,0.687744,-2.75098
17917873816477,0.0885647,0.275521,0.140996,17917873778015,0,0.687744,-2.75098
17917873900217,0.0885647,0.275521,0.140996,17917873861791,0,0.687744,-2.75098
17917873983716,0.0885647,0.275521,0.140996,17917873945161,0,0.687744,-2.75098
17917874067048,0.149602,-0.029664,0.202033,17917874028641,0,0.687744,-2.75098
17917874150620,0.149602,-0.029664,0.202033,17917874112158,0,0.687744,-2.75098
17917874234304,0.149602,-0.029664,0.202033,17917874195731,0,0.687744,-2.75098
17917874317636,0.149602,-0.029664,0.202033,17917874279285,0,0.687744,-2.75098
17917874401302,0.149602,-0.029664,0.202033,17917874362747,0,0.687744,-2.75098
17917874484726,0.149602,-0.029664,0.202033,17917874446338,0,0.687744,-2.75098
17917874568392,0.149602,-0.029664,0.202033,17917874529948,0,0.687744,-2.75098
17917874651779,0.149602,-0.029664,0.202033,17917874613335,0,0.687744,-2.75098
17917874735426,0.149602,-0.029664,0.202033,17917874697001,0,0.687744,-2.75098
17917874819073,0.149602,-0.029664,0.202033,17917874780685,0,0.687744,-2.75098
17917874903238,0.149602,-0.029664,0.202033,17917874864776,0,0.687744,-2.75098
17917874986700,0.149602,-0.029664,0.202033,17917874948238,0,0.687744,-2.75098
17917875070217,0.149602,-0.029664,0.202033,17917875031773,0,0.687744,-2.75098
17917875153605,0.149602,-0.029664,0.202033,17917875115161,0,0.687744,-2.75098
17917875237048,0.149602,-0.029664,0.202033,17917875198623,0,0.687744,-2.75098
17917875320435,0.149602,-0.029664,0.202033,17917875282047,0,0.687744,-2.75098
17917875403879,0.149602,-0.029664,0.202033,17917875365435,0,0.687744,-2.75098
17917875487340,0.149602,-0.029664,0.202033,17917875448952,0,0.687744,-2.75098
17917875570820,0.149602,-0.029664,0.202033,17917875532432,0,0.687744,-2.75098
17917875654152,0.149602,-0.029664,0.202033,17917875615746,0,0.687744,-2.75098
17917875737596,0.149602,-0.029664,0.202033,17917875699189,0,0.687744,-2.75098
17917875821039,0.149602,-0.029664,0.202033,17917875782669,0,0.687744,-2.75098
17917875904463,0.149602,-0.029664,0.202033,17917875865983,0,0.687744,-2.75098
17917875988092,0.149602,-0.029664,0.202033,17917875949648,0,0.687744,-2.75098
17917876088961,0.149602,-0.029664,0.202033,17917876049276,0,0.687744,-2.75098
17917876187366,0.149602,-0.029664,0.202033,17917876148960,0,0.687744,-2.75098
17917876270902,0.149602,-0.029664,0.202033,17917876232495,0,0.687744,-2.75098
17917876354271,0.149602,-0.029664,0.202033,17917876315846,0,0.687744,-2.75098
17917876437640,0.149602,-0.029664,0.202033,17917876399215,0,0.687744,-2.75098
17917876520972,0.149602,-0.029664,0.202033,17917876482528,0,0.687744,-2.75098
17917876604490,0.149602,-0.029664,0.202033,17917876565990,0,0.687744,-2.75098
17917876688488,0.149602,-0.029664,0.202033,17917876650063,0,0.687744,-2.75098
17917876771968,0.149602,-0.029664,0.202033,17917876733617,0,0.687744,-2.75098
17917876855412,0.149602,-0.029664,0.202033,17917876816986,0,0.687744,-2.75098
17917876939095,0.149602,-0.029664,0.202033,17917876900689,0,0.687744,-2.75098
17917877022613,0.149602,-0.029664,0.202033,17917876984206,0,0.687744,-2.75098
17917877106167,0.149602,-0.029664,0.202033,17917877067705,0,0.687744,-2.75098
17917877189517,0.149602,-0.029664,0.202033,17917877151111,0,0.687744,-2.75098
17917877273016,0.149602,-0.029664,0.202033,17917877234609,0,0.687744,-2.75098
17917877356330,0.149602,-0.029664,0.202033,17917877317923,0,0.687744,-2.75098
17917877439791,0.149602,-0.029664,0.202033,17917877401366,0,0.687744,-2.75098
17917877523327,0.149602,-0.029664,0.202033,17917877484939,0,0.687744,-2.75098
17917877606789,0.149602,-0.029664,0.202033,17917877568345,0,0.687744,-2.75098
17917877690658,0.149602,-0.029664,0.202033,17917877651825,0,0.687744,-2.75098
17917877774305,0.149602,-0.029664,0.202033,17917877735842,0,0.687744,-2.75098
17917877857766,0.149602,-0.029664,0.202033,17917877819341,0,0.687744,-2.75098
17917877941413,0.149602,-0.029664,0.202033,17917877902988,0,0.687744,-2.75098
17917878024745,0.149602,-0.029664,0.202033,17917877986375,0,0.687744,-2.75098
17917878108244,0.149602,-0.029664,0.202033,17917878069856,0,0.687744,-2.75098
17917878191613,0.149602,-0.029664,0.202033,17917878153262,0,0.687744,-2.75098
17917878275038,0.149602,-0.029664,0.202033,17917878236649,0,0.687744,-2.75098
17917878358499,0.149602,-0.029664,0.202033,17917878320111,0,0.687744,-2.75098
17917878441831,0.149602,-0.029664,0.202033,17917878403425,0,0.687744,-2.75098
17917878525478,0.149602,-0.029664,0.202033,17917878486886,0,0.687744,-2.75098
17917878609014,0.149602,-0.029664,0.202033,17917878570607,0,0.687744,-2.75098
17917878692716,0.149602,-0.029664,0.202033,17917878654272,0,0.687744,-2.75098
17917878776771,0.149602,-0.029664,0.202033,17917878738104,0,0.687744,-2.75098
17917878860380,0.149602,-0.029664,0.202033,17917878821844,0,0.687744,-2.75098
17917878943953,0.149602,-0.029664,0.202033,17917878905491,0,0.687744,-2.75098
17917879027433,0.149602,-0.029664,0.202033,17917878989008,0,0.687744,-2.75098
17917879110932,0.149602,-0.029664,0.202033,17917879072488,0,0.687744,-2.75098
17917879194375,0.149602,-0.029664,0.202033,17917879155968,0,0.687744,-2.75098
17917879277929,0.149602,-0.029664,0.202033,17917879239486,0,0.687744,-2.75098
17917879361317,0.149602,-0.029664,0.202033,17917879322910,0,0.687744,-2.75098
17917879444723,0.149602,-0.029664,0.202033,17917879406298,0,0.687744,-2.75098
17917879528129,0.149602,-0.029664,0.202033,17917879489685,0,0.687744,-2.75098
17917879611591,0.149602,-0.029664,0.202033,17917879573110,0,0.687744,-2.75098
17917879694960,0.149602,-0.029664,0.202033,17917879656535,0,0.687744,-2.75098
17917879778348,0.149602,-0.029664,0.202033,17917879739922,0,0.687744,-2.75098
17917879861902,0.149602,-0.029664,0.202033,17917879823458,0,0.687744,-2.75098
17917879945326,0.149602,-0.029664,0.202033,17917879906883,0,0.687744,-2.75098
17917880052380,0.149602,-0.029664,0.202033,17917879990270,0,0.687744,-2.75098
17917880152397,0.149602,-0.029664,0.202033,17917880112731,0,0.687744,-2.75098
17917880236118,0.149602,-0.029664,0.202033,17917880197693,0,0.687744,-2.75098
17917880319635,0.149602,-0.029664,0.202033,17917880281210,0,0.687744,-2.75098
17917880403264,0.149602,-0.029664,0.202033,17917880364875,0,0.687744,-2.75098
17917880486522,0.149602,-0.029664,0.202033,17917880448115,0,0.687744,-2.75098
17917880746795,0.149602,-0.029664,0.202033,17917880707000,0,0.687744,-2.75098
17917880831239,0.149602,-0.029664,0.202033,17917880792795,0,0.687744,-2.75098
17917880914793,0.149602,-0.029664,0.202033,17917880876349,0,0.687744,-2.75098
17917880998310,0.149602,-0.029664,0.202033,17917880959903,0,0.687744,-2.75098
17917881081716,0.149602,-0.029664,0.202033,17917881043309,0,0.687744,-2.75098
17917881165307,0.149602,-0.029664,0.202033,17917881126938,0,0.687744,-2.75098
17917881248769,0.149602,-0.029664,0.202033,17917881210325,0,0.687744,-2.75098
17917881332305,0.149602,-0.029664,0.202033,17917881293694,0,0.687744,-2.75098
17917881415989,0.149602,-0.029664,0.202033,17917881377582,0,0.687744,-2.75098
17917881499858,0.149602,-0.029664,0.202033,17917881461155,0,0.687744,-2.75098
17917881583375,0.149602,-0.029664,0.202033,17917881544931,0,0.687744,-2.75098
17917881666781,0.149602,-0.029664,0.202033,17917881628393,0,0.687744,-2.75098
17917881750298,0.149602,-0.029664,0.202033,17917881711892,0,0.687744,-2.75098
17917881833779,0.149602,-0.029664,0.202033,17917881795298,0,0.687744,-2.75098
17917881917074,0.149602,-0.029664,0.202033,17917881878667,0,0.687744,-2.75098
17917882000461,0.149602,-0.029664,0.202033,17917881962054,0,0.687744,-2.75098
17917882083923,0.149602,-0.029664,0.202033,17917882045479,0,0.687744,-2.75098
17917882167366,0.149602,-0.029664,0.202033,17917882128904,0,0.687744,-2.75098
17917882250920,0.149602,-0.029664,0.202033,17917882212513,0,0.687744,-2.75098
17917882334456,0.149602,-0.029664,0.202033,17917882295975,0,0.687744,-2.75098
17917882417918,0.149602,-0.029664,0.202033,17917882379492,0,0.687744,-2.75098
17917882501490,0.149602,-0.029664,0.202033,17917882463046,0,0.687744,-2.75098
17917882585156,0.149602,-0.029664,0.202033,17917882546749,0,0.687744,-2.75098
17917882668654,0.149602,-0.029664,0.202033,17917882630229,0,0.687744,-2.75098
17917882752079,0.149602,-0.029664,0.202033,17917882713654,0,0.687744,-2.75098
17917882835670,0.149602,-0.029664,0.202033,17917882797245,0,0.687744,-2.75098
17917882919521,0.149602,-0.029664,0.202033,17917882881059,0,0.687744,-2.75098
17917883003020,0.149602,-0.029664,0.202033,17917882964594,0,0.687744,-2.75098
17917883086666,0.149602,-0.029664,0.202033,17917883048223,0,0.687744,-2.75098
17917883170073,0.149602,-0.029664,0.202033,17917883131666,0,0.687744,-2.75098
17917883253312,0.149602,-0.029664,0.202033,17917883214961,0,0.687744,-2.75098
17917883336700,0.149602,-0.029664,0.202033,17917883298274,0,0.687744,-2.75098
17917883420032,0.149602,-0.029664,0.202033,17917883381662,0,0.687744,-2.75098
17917883503771,0.149602,-0.029664,0.202033,17917883465346,0,0.687744,-2.75098
17917883587196,0.149602,-0.029664,0.202033,17917883548733,0,0.687744,-2.75098
17917883670565,0.149602,-0.029664,0.202033,17917883632065,0,0.687744,-2.75098
17917883754026,0.149602,-0.029664,0.202033,17917883715638,0,0.687744,-2.75098
17917883837395,0.149602,-0.029664,0.202033,17917883799007,0,0.687744,-2.75098
17917883920820,0.149602,-0.029664,0.202033,17917883882395,0,0.687744,-2.75098
17917884030744,0.149602,-0.029664,0.202033,17917883965782,0,0.687744,-2.75098
17917884133965,-0.0945463,-0.029664,0.385144,17917884094391,0,0.687744,-2.75098
17917884218019,-0.0945463,-0.029664,0.385144,17917884179649,0,0.687744,-2.75098
17917884301518,-0.0945463,-0.029664,0.385144,17917884263074,0,0.687744,-2.75098
17917884385035,-0.0945463,-0.029664,0.385144,17917884346573,0,0.687744,-2.75098
17917884468497,-0.0945463,-0.029664,0.385144,17917884430053,0,0.687744,-2.75098
17917884552032,-0.0945463,-0.029664,0.385144,17917884513626,0,0.687744,-2.75098
17917884635494,-0.0945463,-0.029664,0.385144,17917884597087,0,0.687744,-2.75098
17917884719011,-0.0945463,-0.029664,0.385144,17917884680568,0,0.687744,-2.75098
17917884802547,-0.0945463,-0.029664,0.385144,17917884764177,0,0.687744,-2.75098
17917884886027,-0.0945463,-0.029664,0.385144,17917884847602,0,0.687744,-2.75098
17917884969470,-0.0945463,-0.029664,0.385144,17917884931045,0,0.687744,-2.75098
17917885053117,-0.0945463,-0.029664,0.385144,17917885014710,0,0.687744,-2.75098
17917885136635,-0.0945463,-0.029664,0.385144,17917885098191,0,0.687744,-2.75098
17917885220115,-0.0945463,-0.029664,0.385144,17917885181671,0,0.687744,-2.75098
17917885303873,-0.0945463,-0.029664,0.385144,17917885265355,0,0.687744,-2.75098
17917885387334,-0.0945463,-0.029664,0.385144,17917885348909,0,0.687744,-2.75098
17917885470870,-0.0945463,-0.029664,0.385144,17917885432445,0,0.687744,-2.75098
17917885554443,-0.0945463,-0.029664,0.385144,17917885515962,0,0.687744,-2.75098
17917885637997,-0.0945463,-0.029664,0.385144,17917885599590,0,0.687744,-2.75098
17917885721459,-0.0945463,-0.029664,0.385144,17917885683015,0,0.687744,-2.75098
17917885804920,-0.0945463,-0.029664,0.385144,17917885766532,0,0.687744,-2.75098
17917885888623,-0.0945463,-0.029664,0.385144,17917885850197,0,0.687744,-2.75098
17917885972103,-0.0945463,-0.029664,0.385144,17917885933659,0,0.687744,-2.75098
17917886055602,-0.0945463,-0.029664,0.385144,17917886017139,0,0.687744,-2.75098
17917886139045,-0.0945463,-0.029664,0.385144,17917886100638,0,0.687744,-2.75098
17917886222506,-0.0945463,-0.029664,0.385144,17917886184100,0,0.687744,-2.75098
17917886306005,-0.0945463,-0.029664,0.385144,17917886267543,0,0.687744,-2.75098
17917886389522,-0.0945463,-0.029664,0.385144,17917886351097,0,0.687744,-2.75098
17917886473169,-0.0945463,-0.029664,0.385144,17917886434725,0,0.687744,-2.75098
17917886557149,-0.0945463,-0.029664,0.385144,17917886518706,0,0.687744,-2.75098
17917886640593,-0.0945463,-0.029664,0.385144,17917886602204,0,0.687744,-2.75098
17917886724165,-0.0945463,-0.029664,0.385144,17917886685666,0,0.687744,-2.75098
17917886807571,-0.0945463,-0.029664,0.385144,17917886769183,0,0.687744,-2.75098
17917886891274,-0.0945463,-0.029664,0.385144,17917886852867,0,0.687744,-2.75098
17917886974698,-0.0945463,-0.029664,0.385144,17917886936310,0,0.687744,-2.75098
17917887058253,-0.0945463,-0.029664,0.385144,17917887019753,0,0.687744,-2.75098
17917887141751,-0.0945463,-0.029664,0.385144,17917887103326,0,0.687744,-2.75098
17917887225232,-0.0945463,-0.029664,0.385144,17917887186843,0,0.687744,-2.75098
17917887308712,-0.0945463,-0.029664,0.385144,17917887270342,0,0.687744,-2.75098
17917887392081,-0.0945463,-0.029664,0.385144,17917887353711,0,0.687744,-2.75098
17917887475543,-0.0945463,-0.029664,0.385144,17917887437099,0,0.687744,-2.75098
17917887559078,-0.0945463,-0.029664,0.385144,17917887520597,0,0.687744,-2.75098
17917887642558,-0.0945463,-0.029664,0.385144,17917887604189,0,0.687744,-2.75098
17917887726039,-0.0945463,-0.029664,0.385144,17917887687539,0,0.687744,-2.75098
17917887809630,-0.0945463,-0.029664,0.385144,17917887771168,0,0.687744,-2.75098
17917887893018,-0.0945463,-0.029664,0.385144,17917887854629,0,0.687744,-2.75098
17917887976498,-0.0945463,-0.029664,0.385144,17917887938072,0,0.687744,-2.75098
17917888062570,-0.0945463,-0.029664,0.385144,17917888022145,0,0.687744,-2.75098
17917888155958,-0.0945463,-0.029664,0.385144,17917888117533,0,0.687744,-2.75098
17917888239401,-0.0945463,-0.029664,0.385144,17917888200994,0,0.687744,-2.75098
17917888322900,-0.0945463,-0.029664,0.385144,17917888284493,0,0.687744,-2.75098
17917888406435,-0.0945463,-0.029664,0.385144,17917888367992,0,0.687744,-2.75098
17917888489916,-0.0945463,-0.029664,0.385144,17917888451472,0,0.687744,-2.75098
17917888573507,-0.0945463,-0.029664,0.385144,17917888535082,0,0.687744,-2.75098
17917888657320,-0.0945463,-0.029664,0.385144,17917888618710,0,0.687744,-2.75098
17917888740912,-0.0945463,-0.029664,0.385144,17917888702468,0,0.687744,-2.75098
17917888824559,-0.0945463,-0.029664,0.385144,17917888786115,0,0.687744,-2.75098
17917888908057,-0.0945463,-0.029664,0.385144,17917888869650,0,0.687744,-2.75098
17917888991667,-0.0945463,-0.029664,0.385144,17917888953279,0,0.687744,-2.75098
17917889075166,-0.0945463,-0.029664,0.385144,17917889036796,0,0.687744,-2.75098
17917889158720,-0.0945463,-0.029664,0.385144,17917889120258,0,0.687744,-2.75098
17917889242589,-0.0945463,-0.029664,0.385144,17917889204145,0,0.687744,-2.75098
17917889326495,-0.0945463,-0.029664,0.385144,17917889288107,0,0.687744,-2.75098
17917889602121,-0.0945463,-0.029664,0.385144,17917889561380,0,0.687744,-2.75098
17917889688415,-0.0945463,-0.029664,0.385144,17917889649935,0,0.687744,-2.75098
17917889771840,-0.0945463,-0.029664,0.385144,17917889733489,0,0.687744,-2.75098
17917889855524,-0.0945463,-0.029664,0.385144,17917889817117,0,0.687744,-2.75098
17917889939060,-0.0945463,-0.029664,0.385144,17917889900597,0,0.687744,-2.75098
17917890022595,-0.0945463,-0.029664,0.385144,17917889984133,0,0.687744,-2.75098
17917890106057,-0.0945463,-0.029664,0.385144,17917890067595,0,0.687744,-2.75098
17917890189482,-0.0945463,-0.029664,0.385144,17917890151131,0,0.687744,-2.75098
17917890272943,-0.0945463,-0.029664,0.385144,17917890234500,0,0.687744,-2.75098
17917890356294,-0.0945463,-0.029664,0.385144,17917890317924,0,0.687744,-2.75098
17917890439756,-0.0945463,-0.029664,0.385144,17917890401293,0,0.687744,-2.75098
17917890523347,-0.0945463,-0.029664,0.385144,17917890484866,0,0.687744,-2.75098
17917890606901,-0.0945463,-0.029664,0.385144,17917890568457,0,0.687744,-2.75098
17917890690381,-0.0945463,-0.029664,0.385144,17917890651993,0,0.687744,-2.75098
17917890773917,-0.0945463,-0.029664,0.385144,17917890735510,0,0.687744,-2.75098
17917890857527,-0.0945463,-0.029664,0.385144,17917890819139,0,0.687744,-2.75098
17917890940933,-0.0945463,-0.029664,0.385144,17917890902563,0,0.687744,-2.75098
17917891024487,-0.0945463,-0.029664,0.385144,17917890986025,0,0.687744,-2.75098
17917891107930,-0.0945463,-0.029664,0.385144,17917891069524,0,0.687744,-2.75098
17917891191540,-0.0945463,-0.029664,0.385144,17917891153115,0,0.687744,-2.75098
17917891275002,-0.0945463,-0.029664,0.385144,17917891236595,0,0.687744,-2.75098
17917891358538,-0.0945463,-0.029664,0.385144,17917891320112,0,0.687744,-2.75098
17917891442184,-0.0945463,-0.029664,0.385144,17917891403759,0,0.687744,-2.75098
17917891525572,-0.0945463,-0.029664,0.385144,17917891487202,0,0.687744,-2.75098
17917891608978,-0.0945463,-0.029664,0.385144,17917891570590,0,0.687744,-2.75098
17917891692514,-0.0945463,-0.029664,0.385144,17917891654163,0,0.687744,-2.75098
17917891776031,-0.0945463,-0.029664,0.385144,17917891737606,0,0.687744,-2.75098
17917891859511,-0.0945463,-0.029664,0.385144,17917891821105,0,0.687744,-2.75098
17917891942936,-0.0945463,-0.029664,0.385144,17917891904548,0,0.687744,-2.75098
17917892033657,-0.0945463,-0.029664,0.385144,17917891988028,0,0.687744,-2.75098
17917892133192,-0.0945463,-0.029664,0.385144,17917892093860,0,0.687744,-2.75098
17917892216932,-0.0945463,-0.029664,0.385144,17917892178395,0,0.687744,-2.75098
17917892300597,-0.0945463,-0.029664,0.385144,17917892262098,0,0.687744,-2.75098
17917892384096,-0.0945463,-0.029664,0.385144,17917892345670,0,0.687744,-2.75098
17917892467687,-0.0945463,-0.029664,0.385144,17917892429206,0,0.687744,-2.75098
17917892551204,-0.0945463,-0.029664,0.385144,17917892512760,0,0.687744,-2.75098
17917892634796,-0.0945463,-0.029664,0.385144,17917892596315,0,0.687744,-2.75098
17917892718665,-0.0945463,-0.029664,0.385144,17917892680202,0,0.687744,-2.75098
17917892802163,-0.0945463,-0.029664,0.385144,17917892763701,0,0.687744,-2.75098
17917892885625,-0.0945463,-0.029664,0.385144,17917892847218,0,0.687744,-2.75098
17917892969068,-0.0945463,-0.029664,0.385144,17917892930680,0,0.687744,-2.75098
17917893052604,-0.0945463,-0.029664,0.385144,17917893014197,0,0.687744,-2.75098
17917893136158,-0.0945463,-0.029664,0.385144,17917893097733,0,0.687744,-2.75098
17917893219879,-0.0945463,-0.029664,0.385144,17917893181491,0,0.687744,-2.75098
17917893303341,-0.0945463,-0.029664,0.385144,17917893264897,0,0.687744,-2.75098
17917893386913,-0.0945463,-0.029664,0.385144,17917893348488,0,0.687744,-2.75098
17917893470542,-0.0945463,-0.029664,0.385144,17917893432005,0,0.687744,-2.75098
17917893554226,-0.0945463,-0.029664,0.385144,17917893515782,0,0.687744,-2.75098
17917893637891,-0.0945463,-0.029664,0.385144,17917893599447,0,0.687744,-2.75098
17917893721482,-0.0945463,-0.029664,0.385144,17917893683057,0,0.687744,-2.75098
17917893805037,-0.0945463,-0.029664,0.385144,17917893766630,0,0.687744,-2.75098
17917893888609,-0.0945463,-0.029664,0.385144,17917893850240,0,0.687744,-2.75098
17917893972127,-0.0945463,-0.029664,0.385144,17917893933683,0,0.687744,-2.75098
17917894055866,-0.0945463,-0.029664,0.385144,17917894017181,0,0.687744,-2.75098
17917894139198,-0.0945463,-0.090701,0.385144,17917894100791,0,0.687744,-2.75098
17917894222641,-0.0945463,-0.090701,0.385144,17917894184234,0,0.687744,-2.75098
17917894306121,-0.0945463,-0.090701,0.385144,17917894267678,0,0.687744,-2.75098
17917894389620,-0.0945463,-0.090701,0.385144,17917894351213,0,0.687744,-2.75098
17917894473063,-0.0945463,-0.090701,0.385144,17917894434693,0,0.687744,-2.75098
17917894556488,-0.0945463,-0.090701,0.385144,17917894518081,0,0.687744,-2.75098
17917894639968,-0.0945463,-0.090701,0.385144,17917894601413,0,0.687744,-2.75098
17917894723522,-0.0945463,-0.090701,0.385144,17917894684986,0,0.687744,-2.75098
17917894806910,-0.0945463,-0.090701,0.385144,17917894768503,0,0.687744,-2.75098
17917894890760,-0.0945463,-0.090701,0.385144,17917894852280,0,0.687744,-2.75098
17917894974407,-0.0945463,-0.090701,0.385144,17917894936000,0,0.687744,-2.75098
17917895058110,-0.0945463,-0.090701,0.385144,17917895019721,0,0.687744,-2.75098
17917895141571,-0.0945463,-0.090701,0.385144,17917895103165,0,0.687744,-2.75098
17917895225033,-0.0945463,-0.090701,0.385144,17917895186571,0,0.687744,-2.75098
17917895308384,-0.0945463,-0.090701,0.385144,17917895269995,0,0.687744,-2.75098
17917895391919,-0.0945463,-0.090701,0.385144,17917895353475,0,0.687744,-2.75098
17917895475362,-0.0945463,-0.090701,0.385144,17917895436937,0,0.687744,-2.75098
17917895558732,-0.0945463,-0.090701,0.385144,17917895520269,0,0.687744,-2.75098
17917895642193,-0.0945463,-0.090701,0.385144,17917895603805,0,0.687744,-2.75098
17917895725599,-0.0945463,-0.090701,0.385144,17917895687192,0,0.687744,-2.75098
17917895809061,-0.0945463,-0.090701,0.385144,17917895770617,0,0.687744,-2.75098
17917895892708,-0.0945463,-0.090701,0.385144,17917895854227,0,0.687744,-2.75098
17917895977077,-0.0945463,-0.090701,0.385144,17917895938652,0,0.687744,-2.75098
17917896063631,-0.0945463,-0.090701,0.385144,17917896022687,0,0.687744,-2.75098
17917896161130,-0.0945463,-0.090701,0.385144,17917896122723,0,0.687744,-2.75098
17917896244739,-0.0945463,-0.090701,0.385144,17917896206258,0,0.687744,-2.75098
17917896328368,-0.0945463,-0.090701,0.385144,17917896289868,0,0.687744,-2.75098
17917896411903,-0.0945463,-0.090701,0.385144,17917896373423,0,0.687744,-2.75098
17917896495439,-0.0945463,-0.090701,0.385144,17917896456995,0,0.687744,-2.75098
17917896578901,-0.0945463,-0.090701,0.385144,17917896540438,0,0.687744,-2.75098
17917896662288,-0.0945463,-0.090701,0.385144,17917896623882,0,0.687744,-2.75098
17917896746009,-0.0945463,-0.090701,0.385144,17917896707584,0,0.687744,-2.75098
17917896829527,-0.0945463,-0.090701,0.385144,17917896791101,0,0.687744,-2.75098
17917896913062,-0.0945463,-0.090701,0.385144,17917896874655,0,0.687744,-2.75098
17917896996561,-0.0945463,-0.090701,0.385144,17917896958117,0,0.687744,-2.75098
17917897080041,-0.0945463,-0.090701,0.385144,17917897041616,0,0.687744,-2.75098
17917897163521,-0.0945463,-0.090701,0.385144,17917897125078,0,0.687744,-2.75098
17917897246946,-0.0945463,-0.090701,0.385144,17917897208539,0,0.687744,-2.75098
17917897330482,-0.0945463,-0.090701,0.385144,17917897292056,0,0.687744,-2.75098
17917897414036,-0.0945463,-0.090701,0.385144,17917897375629,0,0.687744,-2.75098
17917897497590,-0.0945463,-0.090701,0.385144,17917897459202,0,0.687744,-2.75098
17917897581256,-0.0945463,-0.090701,0.385144,17917897542812,0,0.687744,-2.75098
17917897664847,-0.0945463,-0.090701,0.385144,17917897626366,0,0.687744,-2.75098
17917897748216,-0.0945463,-0.090701,0.385144,17917897709772,0,0.687744,-2.75098
17917897831826,-0.0945463,-0.090701,0.385144,17917897793363,0,0.687744,-2.75098
17917897915454,-0.0945463,-0.090701,0.385144,17917897877029,0,0.687744,-2.75098
17917897998805,-0.0945463,-0.090701,0.385144,17917897960398,0,0.687744,-2.75098
17917898082674,-0.0945463,-0.090701,0.385144,17917898044285,0,0.687744,-2.75098
17917898165987,-0.0945463,-0.090701,0.385144,17917898127580,0,0.687744,-2.75098
17917898458872,-0.0945463,-0.090701,0.385144,17917898417335,0,0.687744,-2.75098
17917898542759,-0.0945463,-0.090701,0.385144,17917898504315,0,0.687744,-2.75098
17917898626313,-0.0945463,-0.090701,0.385144,17917898587870,0,0.687744,-2.75098
17917898709942,-0.0945463,-0.090701,0.385144,17917898671516,0,0.687744,-2.75098
17917898793329,-0.0945463,-0.090701,0.385144,17917898754904,0,0.687744,-2.75098
17917898876717,-0.0945463,-0.090701,0.385144,17917898838273,0,0.687744,-2.75098
17917898960086,-0.0945463,-0.090701,0.385144,17917898921642,0,0.687744,-2.75098
17917899043807,-0.0945463,-0.090701,0.385144,17917899005400,0,0.687744,-2.75098
17917899127306,-0.0945463,-0.090701,0.385144,17917899088880,0,0.687744,-2.75098
17917899210934,-0.0945463,-0.090701,0.385144,17917899172564,0,0.687744,-2.75098
17917899294414,-0.0945463,-0.090701,0.385144,17917899255952,0,0.687744,-2.75098
17917899377987,-0.0945463,-0.090701,0.385144,17917899339487,0,0.687744,-2.75098
17917899461412,-0.0945463,-0.090701,0.385144,17917899423005,0,0.687744,-2.75098
17917899544873,-0.0945463,-0.090701,0.385144,17917899506429,0,0.687744,-2.75098
17917899628224,-0.0945463,-0.090701,0.385144,17917899589872,0,0.687744,-2.75098
17917899711778,-0.0945463,-0.090701,0.385144,17917899673334,0,0.687744,-2.75098
17917899795314,-0.0945463,-0.090701,0.385144,17917899756888,0,0.687744,-2.75098
17917899878886,-0.0945463,-0.090701,0.385144,17917899840461,0,0.687744,-2.75098
17917899962515,-0.0945463,-0.090701,0.385144,17917899924034,0,0.687744,-2.75098
17917900069643,-0.0945463,-0.090701,0.385144,17917900029717,0,0.687744,-2.75098
17917900165882,-0.0945463,-0.090701,0.385144,17917900127457,0,0.687744,-2.75098
17917900249510,-0.0945463,-0.090701,0.385144,17917900211029,0,0.687744,-2.75098
17917900333176,-0.0945463,-0.090701,0.385144,17917900294713,0,0.687744,-2.75098
17917900416693,-0.0945463,-0.090701,0.385144,17917900378305,0,0.687744,-2.75098
17917900500099,-0.0945463,-0.090701,0.385144,17917900461729,0,0.687744,-2.75098
17917900583468,-0.0945463,-0.090701,0.385144,17917900545061,0,0.687744,-2.75098
17917900667004,-0.0945463,-0.090701,0.385144,17917900628560,0,0.687744,-2.75098
17917900750428,-0.0945463,-0.090701,0.385144,17917900712022,0,0.687744,-2.75098
17917900833853,-0.0945463,-0.090701,0.385144,17917900795409,0,0.687744,-2.75098
17917900917481,-0.0945463,-0.090701,0.385144,17917900878964,0,0.687744,-2.75098
17917901001017,-0.0945463,-0.090701,0.385144,17917900962592,0,0.687744,-2.75098
17917901084590,-0.0945463,-0.090701,0.385144,17917901046146,0,0.687744,-2.75098
17917901168015,-0.0945463,-0.090701,0.385144,17917901129552,0,0.687744,-2.75098
17917901251495,-0.0945463,-0.090701,0.385144,17917901213069,0,0.687744,-2.75098
17917901335234,-0.0945463,-0.090701,0.385144,17917901296809,0,0.687744,-2.75098
17917901418566,-0.0945463,-0.090701,0.385144,17917901380141,0,0.687744,-2.75098
17917901502269,-0.0945463,-0.090701,0.385144,17917901463806,0,0.687744,-2.75098
17917901585749,-0.0945463,-0.090701,0.385144,17917901547286,0,0.687744,-2.75098
17917901669155,-0.0945463,-0.090701,0.385144,17917901630711,0,0.687744,-2.75098
17917901752505,-0.0945463,-0.090701,0.385144,17917901714154,0,0.687744,-2.75098
17917901835949,-0.0945463,-0.090701,0.385144,17917901797468,0,0.687744,-2.75098
17917901919447,-0.0945463,-0.090701,0.385144,17917901881003,0,0.687744,-2.75098
17917902002983,-0.0945463,-0.090701,0.385144,17917901964558,0,0.687744,-2.75098
17917902086426,-0.0945463,-0.090701,0.385144,17917902047982,0,0.687744,-2.75098
17917902169962,-0.0945463,-0.090701,0.385144,17917902131500,0,0.687744,-2.75098
17917902253701,-0.0945463,-0.090701,0.385144,17917902215276,0,0.687744,-2.75098
17917902337274,-0.0945463,-0.090701,0.385144,17917902298738,0,0.687744,-2.75098
17917902420680,-0.0945463,-0.090701,0.385144,17917902382236,0,0.687744,-2.75098
17917902504253,-0.0945463,-0.090701,0.385144,17917902465828,0,0.687744,-2.75098
17917902587678,-0.0945463,-0.090701,0.385144,17917902549289,0,0.687744,-2.75098
17917902671084,-0.0945463,-0.090701,0.385144,17917902632714,0,0.687744,-2.75098
17917902754712,-0.0945463,-0.090701,0.385144,17917902716305,0,0.687744,-2.75098
17917902838229,-0.0945463,-0.090701,0.385144,17917902799860,0,0.687744,-2.75098
17917902921691,-0.0945463,-0.090701,0.385144,17917902883284,0,0.687744,-2.75098
17917903005282,-0.0945463,-0.090701,0.385144,17917902966857,0,0.687744,-2.75098
17917903088855,-0.0945463,-0.090701,0.385144,17917903050448,0,0.687744,-2.75098
17917903172391,-0.0945463,-0.090701,0.385144,17917903133947,0,0.687744,-2.75098
17917903256019,-0.0945463,-0.090701,0.385144,17917903217427,0,0.687744,-2.75098
17917903339407,-0.0945463,-0.090701,0.385144,17917903301000,0,0.687744,-2.75098
17917903422961,-0.0945463,-0.090701,0.385144,17917903384499,0,0.687744,-2.75098
17917903506441,-0.0945463,-0.090701,0.385144,17917903467997,0,0.687744,-2.75098
17917903589921,-0.0945463,-0.090701,0.385144,17917903551496,0,0.687744,-2.75098
17917903673383,-0.0945463,-0.090701,0.385144,17917903634958,0,0.687744,-2.75098
17917903756771,-0.0945463,-0.090701,0.385144,17917903718382,0,0.687744,-2.75098
17917903840177,-0.0945463,-0.090701,0.385144,17917903801770,0,0.687744,-2.75098
